Packet number,Gyroscope X (deg/s),Gyroscope Y (deg/s),Gyroscope Z (deg/s),Accelerometer X (g),Accelerometer Y (g),Accelerometer Z (g),Magnetometer X (G),Magnetometer Y (G),Magnetometer Z (G)
0,0,0,0,0,0,0,0,0,0
0,0,0,0,0,0,0,0,0,0
0,0,0,0,0,0,0,0,0,0
0,0,0,0,0,0,0,0,0,0
0,0,0,0,0,0,0,0,0,0
0,0,0,0,0,0,0,0,0,0
0,0,0,0,0,0,0,0,0,0
0,0,0,0,0,0,0,0,0,0
0,0,0,0,0,0,0,0,0,0
0,0,0,0,0,0,0,0,0,0
0,0,0,0,0,0,0,0,0,0
0,0,0,0,0,0,0,0,0,0
0,0,0,0,0,0,0,0,0,0
0,0,0,0,0,0,0,0,0,0
0,0,0,0,0,0,0,0,0,0
0,0,0,0,0,0,0,0,0,0
0,0,0,0,0,0,0,0,0,0
0,0,0,0,0,0,0,0,0,0
0,0,0,0,0,0,0,0,0,0
0,0,0,0,0,0,0,0,0,0
0,0,0,0,0,0,0,0,0,0
0,0,0,0,0,0,0,0,0,0
0,0,0,0,0,0,0,0,0,0
0,1.77,0.2441,-0.4883,-0.1416,0.9863,-0.0859,0.0,0.0,0.0
1,1.709,0.3662,-0.6714,-0.1382,0.9863,-0.0864,141.3129,-151.7975,-25.0349
2,1.709,0.3662,-0.4883,-0.1406,0.9863,-0.0869,145.1845,-151.7975,-43.8111
3,1.709,0.3662,-0.6104,-0.1401,0.9849,-0.0874,145.1845,-151.7975,-43.8111
4,1.709,0.4272,-0.5493,-0.1411,0.9863,-0.0884,141.3129,-156.3628,-43.8111
5,1.709,0.6714,-0.6104,-0.1421,0.9854,-0.085,164.5424,-154.0801,-31.2936
6,1.6479,0.6714,-0.5493,-0.1445,0.9829,-0.0859,164.5424,-154.0801,-31.2936
7,1.5869,0.7935,-0.6104,-0.1436,0.9819,-0.0854,150.9918,-152.9388,-40.6817
8,1.3428,0.9155,-0.7935,-0.1436,0.981,-0.0874,139.3771,-148.3735,-46.9404
9,1.2207,1.0376,-0.7324,-0.1436,0.9829,-0.0889,141.3129,-149.5148,-31.2936
10,1.0986,1.1597,-0.8545,-0.1416,0.9824,-0.0908,141.3129,-149.5148,-31.2936
11,1.0376,1.0986,-0.9155,-0.1421,0.9824,-0.0913,147.1203,-159.7868,-28.1643
12,0.9155,1.2817,-1.0376,-0.1426,0.9829,-0.0908,149.0561,-147.2321,-31.2936
13,0.9766,1.4648,-1.0986,-0.1431,0.9834,-0.0918,149.0561,-147.2321,-31.2936
14,0.9155,1.5869,-1.1597,-0.1421,0.9844,-0.0894,133.5697,-147.2321,-31.2936
15,0.9155,1.5259,-1.1597,-0.1431,0.9854,-0.0884,143.2487,-152.9388,-28.1643
16,0.8545,1.5259,-1.0986,-0.1436,0.9883,-0.0874,160.6708,-151.7975,-50.0698
17,0.9155,1.5259,-1.0376,-0.1465,0.9854,-0.0835,160.6708,-151.7975,-50.0698
18,1.0376,1.2817,-1.0376,-0.1465,0.981,-0.0796,141.3129,-154.0801,-31.2936
19,0.9766,1.1597,-1.0376,-0.1445,0.9819,-0.0767,158.735,-148.3735,-40.6817
20,0.9766,0.9766,-1.0986,-0.1465,0.9834,-0.0806,158.735,-148.3735,-40.6817
21,0.8545,0.8545,-1.0986,-0.1445,0.9844,-0.0791,141.3129,-154.0801,-62.5872
22,0.8545,0.7935,-1.0986,-0.145,0.9873,-0.0815,147.1203,-157.5042,-21.9055
23,1.0376,0.5493,-0.9766,-0.145,0.9868,-0.084,147.1203,-157.5042,-21.9055
24,1.0986,0.4883,-0.9155,-0.1489,0.9868,-0.085,141.3129,-151.7975,-62.5872
25,1.0986,0.3662,-0.7935,-0.1499,0.9868,-0.0859,158.735,-148.3735,-40.6817
26,1.2817,0.3662,-0.6104,-0.1558,0.9839,-0.0864,131.6339,-157.5042,-53.1991
27,1.2817,0.4883,-0.5493,-0.1577,0.9868,-0.0859,131.6339,-157.5042,-53.1991
28,1.2817,0.4883,-0.4883,-0.1597,0.9839,-0.085,143.2487,-157.5042,-40.6817
29,1.2817,0.4883,-0.4883,-0.1587,0.9824,-0.0815,154.8634,-152.9388,-34.423
30,1.4038,0.3662,-0.3662,-0.1553,0.9795,-0.0806,154.8634,-152.9388,-34.423
31,1.3428,0.3052,-0.4272,-0.1523,0.9829,-0.0806,147.1203,-157.5042,-59.4579
32,1.2817,0.1831,-0.3662,-0.1514,0.9839,-0.0791,147.1203,-159.7868,-46.9404
33,1.4038,0.061,-0.3662,-0.1489,0.9858,-0.0811,147.1203,-146.0908,-65.7166
34,1.5259,-0.1221,-0.1221,-0.1514,0.9849,-0.0825,147.1203,-146.0908,-65.7166
35,1.5259,-0.2441,0.0,-0.1499,0.9834,-0.0845,147.1203,-150.6561,-53.1991
36,1.5869,-0.061,0.061,-0.1484,0.9829,-0.0835,143.2487,-148.3735,-21.9055
37,1.5259,-0.061,0.0,-0.1484,0.9824,-0.0854,143.2487,-148.3735,-21.9055
38,1.4038,0.1221,0.061,-0.1484,0.9814,-0.0879,150.9918,-159.7868,-34.423
39,1.4038,0.4883,-0.1831,-0.146,0.9795,-0.0884,149.0561,-151.7975,-50.0698
40,1.4648,0.5493,-0.1831,-0.1411,0.9795,-0.0864,141.3129,-165.4935,-62.5872
41,1.2207,0.7935,-0.2441,-0.1416,0.9834,-0.0908,141.3129,-165.4935,-62.5872
42,1.2207,0.8545,-0.4272,-0.1387,0.9839,-0.0913,149.0561,-154.0801,-43.8111
43,1.0986,0.9155,-0.4883,-0.1367,0.9868,-0.0918,141.3129,-156.3628,-43.8111
44,1.0986,1.0376,-0.4883,-0.1357,0.9873,-0.0869,141.3129,-156.3628,-43.8111
45,1.0376,1.1597,-0.5493,-0.1372,0.9839,-0.0854,147.1203,-146.0908,-28.1643
46,0.7324,1.0986,-0.6104,-0.1372,0.9829,-0.0869,139.3771,-162.0695,-59.4579
47,0.6714,1.0986,-0.6104,-0.1387,0.9858,-0.0869,139.3771,-162.0695,-59.4579
48,0.6104,1.0376,-0.6104,-0.1406,0.9883,-0.0835,152.9277,-158.6455,-56.3285
49,0.7324,0.9766,-0.6104,-0.1445,0.9849,-0.084,160.6708,-147.2321,-50.0698
50,0.7935,0.9155,-0.6104,-0.146,0.9819,-0.084,131.6339,-157.5042,-65.7166
51,0.7324,0.8545,-0.6714,-0.1465,0.9829,-0.0825,131.6339,-157.5042,-65.7166
52,0.7935,0.7935,-0.7324,-0.145,0.9839,-0.084,139.3771,-155.2215,-46.9404
53,0.7935,0.7935,-0.8545,-0.1436,0.9849,-0.0859,145.1845,-156.3628,-50.0698
54,0.8545,0.6104,-0.7935,-0.1436,0.9858,-0.0845,145.1845,-156.3628,-50.0698
55,0.9155,0.4272,-0.8545,-0.1431,0.9854,-0.0864,150.9918,-157.5042,-65.7166
56,1.0376,0.3662,-0.8545,-0.1436,0.9863,-0.0859,149.0561,-147.2321,-62.5872
57,1.1597,0.2441,-0.7324,-0.1445,0.9863,-0.0864,158.735,-150.6561,-53.1991
58,1.2817,0.0,-0.7324,-0.1445,0.9858,-0.0859,158.735,-150.6561,-53.1991
59,1.3428,-0.2441,-0.6104,-0.145,0.9858,-0.083,156.7992,-156.3628,-50.0698
60,1.3428,-0.3052,-0.6104,-0.1465,0.9834,-0.0835,150.9918,-152.9388,-65.7166
61,1.2817,-0.3052,-0.7324,-0.1484,0.9814,-0.085,150.9918,-152.9388,-65.7166
62,1.4038,-0.4272,-0.8545,-0.1479,0.9819,-0.0845,139.3771,-152.9388,-53.1991
63,1.4038,-0.4272,-0.8545,-0.1475,0.9863,-0.0879,160.6708,-154.0801,-6.2587
64,1.5259,-0.4272,-0.6714,-0.1484,0.9858,-0.084,145.1845,-151.7975,-43.8111
65,1.5259,-0.4272,-0.7324,-0.1484,0.9883,-0.0879,145.1845,-151.7975,-43.8111
66,1.4648,-0.3662,-0.7324,-0.1479,0.9854,-0.0889,127.7624,-148.3735,-59.4579
67,1.4038,-0.3662,-0.6104,-0.1489,0.9829,-0.083,158.735,-148.3735,-53.1991
68,1.4038,-0.3052,-0.6104,-0.1479,0.9814,-0.0811,158.735,-148.3735,-53.1991
69,1.3428,-0.2441,-0.6714,-0.147,0.981,-0.084,141.3129,-151.7975,-25.0349
70,1.3428,-0.1831,-0.6714,-0.1504,0.9805,-0.0815,160.6708,-160.9281,-75.1047
71,1.2207,-0.061,-0.7324,-0.1519,0.9814,-0.0835,158.735,-152.9388,-46.9404
72,1.2207,-0.061,-0.7324,-0.1533,0.9849,-0.0874,158.735,-152.9388,-46.9404
73,1.1597,0.061,-0.6104,-0.1538,0.9888,-0.085,141.3129,-149.5148,-50.0698
74,1.0376,0.2441,-0.4272,-0.1533,0.9863,-0.0815,154.8634,-143.8081,-53.1991
75,1.0376,0.1831,-0.3662,-0.1528,0.9829,-0.0811,154.8634,-143.8081,-53.1991
76,1.0986,0.1831,-0.2441,-0.1519,0.9814,-0.0811,139.3771,-155.2215,-53.1991
77,0.7935,0.2441,-0.4272,-0.1504,0.9829,-0.0811,154.8634,-152.9388,-53.1991
78,0.7935,0.1831,-0.3662,-0.1519,0.9834,-0.0791,137.4413,-156.3628,-37.5523
79,0.7324,0.1831,-0.3052,-0.1509,0.9873,-0.082,137.4413,-156.3628,-37.5523
80,0.8545,0.1221,-0.1831,-0.1499,0.9907,-0.0796,150.9918,-150.6561,-34.423
81,0.9155,-0.061,-0.061,-0.1499,0.9937,-0.0762,143.2487,-155.2215,-40.6817
82,0.9155,-0.061,0.2441,-0.1494,0.9902,-0.0776,143.2487,-155.2215,-40.6817
83,0.7935,-0.3052,0.2441,-0.1475,0.9917,-0.0757,152.9277,-147.2321,-56.3285
84,1.2207,-0.8545,0.4883,-0.1436,0.9893,-0.0732,139.3771,-152.9388,-65.7166
85,1.5259,-1.4038,0.4883,-0.1465,0.9893,-0.0767,129.6981,-154.0801,-43.8111
86,1.77,-1.6479,0.4883,-0.1465,0.9873,-0.0723,129.6981,-154.0801,-43.8111
87,2.0752,-2.3193,0.5493,-0.1494,0.9839,-0.0791,149.0561,-151.7975,-62.5872
88,2.0752,-2.5024,0.4883,-0.1519,0.9878,-0.0781,145.1845,-147.2321,-50.0698
89,2.1362,-2.5024,0.6714,-0.1558,0.9868,-0.082,145.1845,-147.2321,-50.0698
90,2.2583,-2.5024,0.6104,-0.1567,0.9863,-0.0874,154.8634,-150.6561,-53.1991
91,2.3193,-2.3193,0.5493,-0.1528,0.9814,-0.0869,150.9918,-152.9388,-53.1991
92,2.1362,-1.8921,0.5493,-0.1475,0.978,-0.0869,162.6066,-155.2215,-28.1643
93,1.9531,-1.5259,0.6104,-0.1465,0.9819,-0.085,162.6066,-155.2215,-28.1643
94,1.5259,-1.2817,0.4883,-0.1421,0.9897,-0.085,145.1845,-156.3628,-43.8111
95,1.5869,-1.2817,0.6104,-0.1431,0.9912,-0.0869,149.0561,-147.2321,-62.5872
96,1.6479,-1.2817,0.4883,-0.1421,0.9922,-0.0889,149.0561,-147.2321,-62.5872
97,1.9531,-1.4648,0.3662,-0.1392,0.9946,-0.0889,147.1203,-146.0908,-46.9404
98,2.0752,-1.5259,0.3662,-0.1367,0.9971,-0.0806,145.1845,-151.7975,-31.2936
99,2.2583,-2.2583,0.3052,-0.1318,1.0024,-0.0815,145.1845,-151.7975,-31.2936
100,2.3193,-2.5635,0.2441,-0.1265,1.0,-0.0762,149.0561,-156.3628,-37.5523
101,2.4414,-3.0518,0.1831,-0.127,0.9976,-0.0723,141.3129,-158.6455,-75.1047
102,2.8687,-3.9062,0.3052,-0.1313,0.9883,-0.0742,147.1203,-150.6561,-46.9404
103,2.9907,-3.9673,0.3052,-0.1328,0.9805,-0.0693,147.1203,-150.6561,-46.9404
104,3.1128,-4.3945,-0.1221,-0.1333,0.979,-0.0718,141.3129,-151.7975,-50.0698
105,3.0518,-4.6997,-0.3052,-0.1406,0.9834,-0.0786,145.1845,-151.7975,-37.5523
106,2.9297,-4.6387,-0.2441,-0.1455,0.9854,-0.0806,145.1845,-151.7975,-37.5523
107,2.3193,-3.479,-0.061,-0.1445,0.9844,-0.0713,154.8634,-162.0695,-46.9404
108,2.2583,-3.479,-0.3662,-0.1475,0.9873,-0.0747,156.7992,-147.2321,-31.2936
109,2.8076,-3.6621,-1.0986,-0.144,1.0029,-0.084,147.1203,-150.6561,-53.1991
110,2.8687,-3.418,-1.2817,-0.1367,1.0063,-0.0884,147.1203,-150.6561,-53.1991
111,2.6855,-3.3569,-1.2817,-0.1304,1.0073,-0.083,156.7992,-165.4935,-50.0698
112,2.3193,-2.8687,-1.1597,-0.1157,0.999,-0.0752,149.0561,-151.7975,-43.8111
113,2.4414,-3.0518,-1.3428,-0.1094,0.9902,-0.0742,135.5055,-152.9388,-40.6817
114,2.7466,-3.8452,-1.8921,-0.1016,0.9756,-0.084,135.5055,-152.9388,-40.6817
115,2.4414,-4.0894,-2.1362,-0.1069,0.9741,-0.0923,143.2487,-159.7868,-40.6817
116,1.4648,-3.8452,-2.5635,-0.1187,0.978,-0.0986,143.2487,-155.2215,-65.7166
117,0.9766,-3.54,-2.8687,-0.1245,0.9863,-0.1064,143.2487,-155.2215,-65.7166
118,0.6714,-3.0518,-3.1738,-0.1304,0.9937,-0.1118,133.5697,-156.3628,-37.5523
119,0.5493,-1.4038,-3.7231,-0.1309,0.9854,-0.1167,137.4413,-158.6455,-56.3285
120,0.5493,-0.7324,-4.2114,-0.1279,0.9771,-0.1211,145.1845,-149.5148,-37.5523
121,-0.1221,0.6714,-5.3101,-0.1201,0.9629,-0.1245,145.1845,-149.5148,-37.5523
122,-0.7935,1.2207,-5.9814,-0.1123,0.9624,-0.1221,143.2487,-148.3735,-46.9404
123,-2.1362,1.709,-6.958,-0.0981,0.9771,-0.124,147.1203,-150.6561,-40.6817
124,-2.4414,1.709,-7.3853,-0.0908,0.9844,-0.1279,143.2487,-162.0695,-71.9753
125,-2.5635,1.6479,-7.8735,-0.084,0.9902,-0.126,143.2487,-162.0695,-71.9753
126,-2.3804,1.1597,-8.8501,-0.0752,0.9976,-0.1284,141.3129,-147.2321,-56.3285
127,-2.4414,0.9766,-9.2163,-0.0698,0.9961,-0.127,147.1203,-155.2215,-46.9404
128,-2.5024,0.061,-10.3149,-0.0601,0.9956,-0.1182,147.1203,-155.2215,-46.9404
129,-2.5635,-0.6104,-10.9863,-0.0542,0.9946,-0.1191,139.3771,-150.6561,-59.4579
130,-2.8687,-1.709,-12.5732,-0.0522,0.9966,-0.1245,147.1203,-166.6348,-46.9404
131,-3.2349,-1.8311,-13.3057,-0.0513,0.9946,-0.1265,141.3129,-149.5148,-31.2936
132,-4.3945,-1.8921,-14.5874,-0.0601,0.9941,-0.1216,141.3129,-149.5148,-31.2936
133,-4.6387,-1.9531,-15.1367,-0.0688,0.9927,-0.1123,133.5697,-158.6455,-56.3285
134,-4.6997,-1.9531,-15.8081,-0.0791,0.9873,-0.1133,149.0561,-167.7762,-75.1047
135,-4.8828,-1.5259,-17.4561,-0.0889,0.9771,-0.1182,147.1203,-157.5042,-65.7166
136,-5.249,-1.0376,-18.3716,-0.0986,0.9775,-0.1289,147.1203,-157.5042,-65.7166
137,-7.2632,1.2817,-19.5313,-0.1001,0.9785,-0.1138,147.1203,-159.7868,-59.4579
138,-7.7515,1.709,-20.2026,-0.0981,0.9785,-0.106,129.6981,-158.6455,-62.5872
139,-8.3618,1.77,-21.7285,-0.0933,0.9829,-0.1162,152.9277,-163.2108,-75.1047
140,-8.606,1.9531,-22.522,-0.0918,0.9834,-0.1152,152.9277,-163.2108,-75.1047
141,-8.728,1.4648,-23.7427,-0.0835,0.9785,-0.105,150.9918,-157.5042,-59.4579
142,-8.4839,0.4883,-24.5972,-0.0903,0.9844,-0.1152,121.955,-154.0801,-50.0698
143,-8.667,-0.3662,-25.7568,-0.1001,0.9868,-0.1177,149.0561,-156.3628,-62.5872
144,-9.3384,-0.061,-25.8789,-0.1025,0.9839,-0.1079,149.0561,-156.3628,-62.5872
145,-9.8877,-0.1831,-26.062,-0.1025,0.9814,-0.1045,147.1203,-157.5042,-59.4579
146,-10.376,-1.2207,-27.5879,-0.1084,0.9907,-0.1128,139.3771,-159.7868,-59.4579
147,-10.376,-1.5259,-28.3203,-0.1138,0.9971,-0.1172,129.6981,-158.6455,-62.5872
148,-9.7046,-2.5635,-29.6021,-0.1279,1.0049,-0.123,129.6981,-158.6455,-62.5872
149,-9.4604,-2.6245,-29.541,-0.1396,1.0049,-0.1265,125.8265,-160.9281,-68.846
150,-9.2163,-2.4414,-28.9307,-0.1602,1.0059,-0.1016,135.5055,-159.7868,-65.7166
151,-8.728,-2.8687,-28.6255,-0.168,1.0029,-0.0889,125.8265,-156.3628,-75.1047
152,-7.5073,-3.9062,-28.8086,-0.1816,0.9878,-0.0703,125.8265,-156.3628,-75.1047
153,-7.4463,-4.2725,-29.1138,-0.186,0.9805,-0.0635,121.955,-163.2108,-75.1047
154,-8.5449,-4.6997,-30.0293,-0.1953,0.9702,-0.0552,131.6339,-162.0695,-65.7166
155,-9.5825,-4.8218,-30.5176,-0.1992,0.9702,-0.0532,131.6339,-162.0695,-65.7166
156,-11.4746,-5.5542,-30.9448,-0.2061,0.9819,-0.0508,129.6981,-165.4935,-68.846
157,-12.207,-5.9204,-31.0669,-0.2095,0.9863,-0.0518,118.0834,-163.2108,-75.1047
158,-12.5732,-6.3477,-31.25,-0.21,0.9956,-0.0571,123.8908,-168.9175,-84.4927
159,-12.5732,-7.019,-31.6772,-0.2085,1.0073,-0.0688,123.8908,-168.9175,-84.4927
160,-12.085,-7.2021,-31.7993,-0.2021,1.0122,-0.0737,120.0192,-166.6348,-84.4927
161,-10.7422,-7.6294,-31.7383,-0.1997,1.0161,-0.0742,116.1476,-178.0482,-97.0102
162,-9.7046,-8.0566,-31.3721,-0.1973,1.0254,-0.0718,121.955,-172.3415,-131.4332
163,-7.5684,-9.0942,-30.3955,-0.1968,1.0332,-0.0654,121.955,-172.3415,-131.4332
164,-6.2866,-10.0098,-30.0293,-0.1948,1.0361,-0.0586,114.2118,-160.9281,-112.657
165,-4.3335,-12.2681,-30.0903,-0.1909,1.0293,-0.0552,127.7624,-166.6348,-103.2689
166,-3.7231,-13.3667,-30.3345,-0.1885,1.0239,-0.0498,100.6612,-164.3522,-97.0102
167,-3.1738,-15.2588,-30.4565,-0.1948,1.0137,-0.0444,112.276,-175.7655,-109.5276
168,-3.2349,-15.8081,-30.5786,-0.2017,1.0073,-0.0425,112.276,-175.7655,-109.5276
169,-3.9062,-16.4185,-30.9448,-0.2148,0.9961,-0.0469,110.3402,-172.3415,-125.1744
170,-4.2725,-16.6016,-31.311,-0.2187,0.9922,-0.0469,118.0834,-167.7762,-75.1047
171,-4.9438,-16.9067,-32.0435,-0.2231,0.9897,-0.0566,123.8908,-173.4828,-97.0102
172,-5.3101,-16.7847,-32.4097,-0.2266,0.9907,-0.062,123.8908,-173.4828,-97.0102
173,-5.9204,-15.8081,-32.959,-0.2397,0.9961,-0.0762,114.2118,-170.0588,-112.657
174,-6.0425,-14.9536,-33.1421,-0.2446,0.9976,-0.0791,114.2118,-170.0588,-125.1744
175,-5.4932,-13.4888,-32.8369,-0.2578,0.9946,-0.0718,96.7897,-171.2001,-128.3038
176,-4.8828,-12.8784,-32.4097,-0.2617,0.9893,-0.0693,96.7897,-171.2001,-128.3038
177,-3.418,-12.0239,-31.4941,-0.2656,0.9717,-0.0449,110.3402,-172.3415,-118.9157
178,-2.7466,-11.5967,-30.7007,-0.2646,0.9678,-0.0322,96.7897,-180.3308,-90.7515
179,-1.77,-10.8032,-28.0762,-0.2617,0.958,-0.0161,100.6612,-173.4828,-90.7515
180,-1.709,-10.1318,-26.4893,-0.2578,0.9521,-0.0078,100.6612,-173.4828,-90.7515
181,-2.3193,-8.0566,-23.0713,-0.2583,0.9424,-0.0024,106.4686,-176.9068,-125.1744
182,-2.6855,-7.1411,-21.1182,-0.2578,0.9429,-0.0005,110.3402,-167.7762,-112.657
183,-3.1738,-5.188,-17.0898,-0.2603,0.9438,-0.0068,102.597,-176.9068,-137.6919
184,-3.1738,-4.2114,-15.0146,-0.2612,0.9453,-0.0054,102.597,-176.9068,-137.6919
185,-2.8687,-3.1738,-12.7563,-0.2646,0.9443,-0.0098,102.597,-179.1895,-125.1744
186,-1.9531,-0.6714,-8.2397,-0.271,0.939,-0.0151,96.7897,-180.3308,-122.0451
187,-1.5869,0.4883,-5.7983,-0.2773,0.9375,-0.0176,90.9823,-163.2108,-131.4332
188,-0.8545,3.2349,-1.2207,-0.2778,0.9399,-0.019,90.9823,-163.2108,-131.4332
189,-0.3662,4.5166,1.0376,-0.2783,0.9409,-0.0176,92.9181,-173.4828,-134.5625
190,0.6714,6.4087,5.3711,-0.272,0.9429,-0.019,100.6612,-168.9175,-134.5625
191,1.2817,7.1411,7.5684,-0.2646,0.9482,-0.02,100.6612,-171.2001,-134.5625
192,3.54,7.9956,12.3291,-0.2515,0.9551,-0.0122,100.6612,-171.2001,-134.5625
193,4.8828,7.9956,14.8315,-0.2422,0.958,-0.0044,87.1107,-172.3415,-143.9506
194,6.1646,7.8125,17.1509,-0.231,0.9604,-0.0005,92.9181,-164.3522,-134.5625
195,8.3618,7.1411,22.3389,-0.2104,0.9683,0.0029,92.9181,-164.3522,-134.5625
196,9.3384,6.6528,25.0854,-0.2041,0.9771,0.0059,106.4686,-165.4935,-131.4332
197,11.6577,5.3711,30.7007,-0.1973,0.9927,0.0117,96.7897,-157.5042,-128.3038
198,13.0005,4.5776,33.5693,-0.1997,0.9956,0.0083,96.7897,-159.7868,-134.5625
199,14.4653,3.7842,36.3159,-0.2031,0.9966,0.0103,96.7897,-159.7868,-134.5625
200,17.334,2.6245,41.5039,-0.2139,0.9937,0.0083,98.7254,-163.2108,-150.2093
201,18.5547,2.2583,43.8232,-0.2183,0.9932,0.0044,120.0192,-164.3522,-115.7863
202,20.0806,2.3193,47.9126,-0.2217,0.9946,-0.0093,120.0192,-164.3522,-115.7863
203,20.6299,2.6245,49.8047,-0.2231,0.9966,-0.0117,100.6612,-148.3735,-109.5276
204,21.1182,3.1128,51.6357,-0.2231,0.9956,-0.0205,100.6612,-157.5042,-122.0451
205,22.4609,4.0894,54.8096,-0.2139,0.9956,-0.0322,102.597,-149.5148,-106.3983
206,23.3765,4.5166,56.3354,-0.209,0.998,-0.0381,102.597,-149.5148,-106.3983
207,25.3906,4.5776,59.082,-0.1885,1.0005,-0.0405,96.7897,-141.5255,-84.4927
208,26.3672,4.3945,60.4248,-0.1792,1.0024,-0.0381,102.597,-147.2321,-112.657
209,27.8931,3.2959,62.3169,-0.1484,1.0063,-0.0459,120.0192,-134.6774,-84.4927
210,28.4424,2.3804,63.1104,-0.1372,1.0146,-0.0488,120.0192,-134.6774,-84.4927
211,29.8462,-0.3052,65.2466,-0.1177,1.0278,-0.0542,112.276,-141.5255,-122.0451
212,30.9448,-1.9531,66.4063,-0.1118,1.0283,-0.0522,131.6339,-132.3948,-59.4579
213,32.3486,-3.9062,67.3828,-0.1055,1.0293,-0.0479,131.6339,-132.3948,-59.4579
214,35.4614,-9.0942,68.9697,-0.0986,1.0273,-0.0356,118.0834,-128.9708,-87.6221
215,36.8652,-11.9019,69.397,-0.0937,1.0259,-0.0327,129.6981,-128.9708,-87.6221
216,39.0015,-17.334,69.8853,-0.0918,1.0181,-0.0342,129.6981,-124.4054,-93.8808
217,39.5508,-19.6533,70.0684,-0.0933,1.0161,-0.0352,129.6981,-124.4054,-93.8808
218,40.3442,-24.1699,70.3125,-0.0981,1.0103,-0.043,118.0834,-122.1228,-87.6221
219,40.7715,-26.3672,70.3735,-0.1016,1.0054,-0.0444,129.6981,-115.2748,-81.3634
220,41.8701,-30.8838,70.0073,-0.1113,1.0049,-0.0532,129.6981,-122.1228,-81.3634
221,42.4805,-33.02,70.0073,-0.1167,1.0034,-0.0479,129.6981,-122.1228,-81.3634
222,44.2505,-37.1704,69.6411,-0.127,0.9951,-0.0469,121.955,-115.2748,-68.846
223,44.8608,-39.1235,69.1528,-0.1328,0.9863,-0.0483,123.8908,-109.5681,-65.7166
224,45.105,-40.8325,68.5425,-0.1416,0.9819,-0.0498,133.5697,-103.8614,-62.5872
225,45.166,-43.457,67.3828,-0.1538,0.9761,-0.0537,133.5697,-103.8614,-62.5872
226,45.2271,-44.4336,66.8945,-0.1577,0.9722,-0.0562,137.4413,-101.5788,-50.0698
227,45.7764,-46.2036,66.1621,-0.1689,0.9609,-0.0522,127.7624,-100.4374,-59.4579
228,46.2646,-46.875,65.4907,-0.1748,0.9526,-0.0566,133.5697,-92.4481,-43.8111
229,46.7529,-47.1802,63.5376,-0.1919,0.9292,-0.0615,133.5697,-92.4481,-43.8111
230,46.4478,-46.814,62.1338,-0.1987,0.9175,-0.062,131.6339,-79.8934,-65.7166
231,44.5557,-44.9829,59.082,-0.2041,0.9146,-0.0674,135.5055,-86.7414,-53.1991
232,43.457,-43.8843,57.8613,-0.2007,0.916,-0.0645,143.2487,-79.8934,-40.6817
233,42.3584,-42.9077,56.5186,-0.1958,0.9175,-0.064,143.2487,-79.8934,-40.6817
234,40.7715,-40.9546,53.5889,-0.1934,0.9121,-0.0737,131.6339,-84.4587,-46.9404
235,39.978,-39.7949,51.8799,-0.1938,0.9048,-0.0806,137.4413,-78.7521,-56.3285
236,37.7808,-37.1094,48.1567,-0.1958,0.8853,-0.0972,137.4413,-78.7521,-56.3285
237,36.377,-35.5225,46.1426,-0.1973,0.8823,-0.103,125.8265,-67.3387,-56.3285
238,32.8369,-32.2266,41.9922,-0.2026,0.877,-0.1113,141.3129,-69.6214,-31.2936
239,31.311,-30.6396,39.6118,-0.1924,0.8633,-0.1113,123.8908,-66.1974,-40.6817
240,28.6865,-27.71,33.6304,-0.1924,0.8623,-0.1055,123.8908,-66.1974,-40.6817
241,27.2217,-26.3672,31.0669,-0.1875,0.8384,-0.103,131.6339,-63.9147,-40.6817
242,25.8179,-24.5972,28.1982,-0.1826,0.8125,-0.1108,139.3771,-70.7627,-46.9404
243,21.4844,-21.3623,20.4468,-0.1851,0.7803,-0.1064,127.7624,-63.9147,-21.9055
244,18.4937,-19.4702,16.1743,-0.1855,0.7764,-0.104,127.7624,-63.9147,-21.9055
245,11.2915,-15.8691,7.9346,-0.1826,0.79,-0.0967,127.7624,-63.9147,-40.6817
246,7.7515,-14.5264,4.0283,-0.1807,0.7998,-0.0962,133.5697,-71.9041,-43.8111
247,2.6245,-12.5732,-3.3569,-0.1899,0.832,-0.0937,137.4413,-60.4907,-25.0349
248,1.2817,-11.6577,-6.897,-0.1948,0.8374,-0.0908,137.4413,-60.4907,-25.0349
249,0.1221,-10.6201,-10.376,-0.2017,0.834,-0.0908,133.5697,-62.7734,-31.2936
250,-3.0518,-7.6904,-17.1509,-0.231,0.8379,-0.0825,143.2487,-68.48,-40.6817
251,-5.5542,-5.9204,-20.5688,-0.2563,0.8623,-0.0937,143.2487,-68.48,-40.6817
252,-11.7187,-1.5259,-29.48,-0.3208,0.9175,-0.1826,125.8265,-65.0561,-37.5523
253,-13.2446,1.2207,-33.8135,-0.3501,0.9302,-0.2339,131.6339,-66.1974,-34.423
254,-12.5122,7.3242,-38.3301,-0.3291,1.0005,-0.2739,129.6981,-67.3387,-37.5523
255,-11.6577,10.5591,-37.0483,-0.2617,1.0698,-0.2539,129.6981,-67.3387,-37.5523
256,-10.7422,15.9912,-28.6255,-0.0903,1.1938,-0.2144,114.2118,-62.7734,-18.7762
257,-10.9863,17.395,-23.9868,-0.0312,1.2339,-0.2461,108.4044,-68.48,-34.423
258,-10.3149,18.7988,-19.8975,0.0015,1.2446,-0.46,141.3129,-74.1867,-31.2936
259,-8.8501,20.2637,-21.3013,-0.0273,1.2495,-0.5654,141.3129,-74.1867,-31.2936
260,-4.9438,21.9727,-24.4141,-0.0884,1.2661,-0.6196,127.7624,-66.1974,-53.1991
261,13.2446,25.9399,-32.1045,-0.1938,1.2207,-0.4487,108.4044,-75.3281,-28.1643
262,22.2168,27.9541,-35.9497,-0.1914,1.1523,-0.2534,123.8908,-73.0454,-15.6468
263,26.2451,28.5034,-42.2974,-0.0596,1.0674,0.1362,123.8908,-73.0454,-15.6468
264,24.0479,25.6958,-44.6167,0.063,1.0723,0.2988,125.8265,-71.9041,-50.0698
265,12.5122,11.6577,-46.0815,0.3027,1.126,0.48,110.3402,-83.3174,-43.8111
266,2.9907,2.1362,-44.3115,0.376,1.1182,0.439,110.3402,-83.3174,-43.8111
267,-7.6904,-6.3477,-41.626,0.3936,1.0674,0.2729,108.4044,-75.3281,-28.1643
268,-22.8271,-15.8691,-37.7197,0.1367,1.103,-0.0244,127.7624,-75.3281,-34.423
269,-22.583,-19.2871,-36.0718,-0.04,1.0796,-0.106,112.276,-75.3281,-46.9404
270,-10.3149,-22.2168,-37.5977,-0.3291,1.0415,-0.2622,112.276,-75.3281,-46.9404
271,-5.4321,-19.4092,-37.7197,-0.4126,0.9863,-0.2749,116.1476,-79.8934,-40.6817
272,-2.3193,-9.5215,-36.8042,-0.48,0.8677,-0.2344,112.276,-75.3281,-59.4579
273,-5.127,-4.6387,-36.7432,-0.4692,0.8374,-0.2041,118.0834,-74.1867,-43.8111
274,-11.4136,0.8545,-37.5977,-0.3667,0.877,-0.2036,118.0834,-74.1867,-43.8111
275,-12.085,1.0376,-37.8418,-0.2974,0.9209,-0.2383,120.0192,-73.0454,-34.423
276,-10.6201,-0.4883,-37.4756,-0.2285,0.9663,-0.2612,118.0834,-78.7521,-62.5872
277,-2.9907,-9.4604,-34.1797,-0.1123,1.0332,-0.2344,125.8265,-71.9041,-56.3285
278,2.1973,-16.2354,-31.7993,-0.0762,1.0376,-0.1919,125.8265,-71.9041,-56.3285
279,10.376,-29.1138,-27.1606,-0.0728,0.9907,-0.1255,120.0192,-89.0241,-59.4579
280,11.7798,-33.2642,-25.1465,-0.0981,0.9561,-0.1016,121.955,-85.6001,-31.2936
281,10.1318,-35.5225,-23.1934,-0.1763,0.8916,-0.083,98.7254,-74.1867,-50.0698
282,7.5684,-34.1797,-23.2544,-0.2183,0.8784,-0.0942,98.7254,-74.1867,-50.0698
283,1.4648,-27.5269,-24.5972,-0.2783,0.9019,-0.1392,108.4044,-84.4587,-65.7166
284,-0.9155,-22.3999,-25.6348,-0.2856,0.9292,-0.1611,110.3402,-81.0347,-62.5872
285,-2.1362,-16.8457,-26.5503,-0.2749,0.9468,-0.1812,110.3402,-81.0347,-62.5872
286,-2.9907,-5.3711,-27.5269,-0.2344,0.9668,-0.1899,118.0834,-87.8827,-75.1047
287,-2.8687,-0.7935,-27.832,-0.207,0.9609,-0.1738,123.8908,-82.1761,-65.7166
288,-2.6245,3.6621,-28.7476,-0.146,0.9399,-0.145,116.1476,-82.1761,-34.423
289,-3.1128,3.54,-29.1748,-0.127,0.938,-0.144,116.1476,-82.1761,-34.423
290,-3.8452,1.0986,-29.48,-0.1172,0.9727,-0.1558,104.5328,-86.7414,-46.9404
291,-3.418,-0.5493,-29.1138,-0.1182,0.9927,-0.1538,120.0192,-77.6107,-40.6817
292,-0.1831,-3.9673,-28.1982,-0.1323,0.979,-0.167,106.4686,-83.3174,-37.5523
293,1.5259,-5.249,-27.832,-0.124,0.9702,-0.1406,106.4686,-83.3174,-37.5523
294,1.709,-6.958,-27.0386,-0.1367,0.9263,-0.1455,112.276,-82.1761,-65.7166
295,0.8545,-9.5825,-27.0386,-0.186,0.9297,-0.1499,110.3402,-87.8827,-62.5872
296,-0.7324,-10.437,-26.9165,-0.2104,0.9458,-0.1592,112.276,-86.7414,-65.7166
297,-2.8076,-9.9487,-26.9165,-0.2617,0.9795,-0.1846,112.276,-86.7414,-65.7166
298,-3.54,-8.9111,-26.7944,-0.2881,0.9863,-0.2075,104.5328,-91.3067,-65.7166
299,-4.2114,-5.3101,-26.4282,-0.3174,0.9878,-0.2471,96.7897,-89.0241,-53.1991
300,-4.2725,-3.6621,-26.4282,-0.3105,0.9805,-0.2461,96.7897,-89.0241,-53.1991
301,-4.0283,-2.8687,-26.6724,-0.29,0.9805,-0.2354,102.597,-94.7307,-68.846
302,-2.9297,-4.3945,-26.9775,-0.231,1.0005,-0.207,106.4686,-90.1654,-75.1047
303,-2.6855,-6.1035,-26.5503,-0.2065,1.0054,-0.1934,102.597,-92.4481,-56.3285
304,-2.8076,-10.0708,-24.7803,-0.2061,0.998,-0.1987,102.597,-92.4481,-56.3285
305,-2.9907,-11.5356,-23.8647,-0.2275,0.9883,-0.2031,89.0465,-91.3067,-78.234
306,-3.0518,-13.0005,-22.583,-0.2681,0.9644,-0.2085,108.4044,-93.5894,-65.7166
307,-3.2959,-13.1836,-22.3389,-0.2827,0.9541,-0.2095,100.6612,-91.3067,-71.9753
308,-3.9673,-12.7563,-22.3389,-0.291,0.9619,-0.1987,100.6612,-91.3067,-71.9753
309,-4.4556,-12.5732,-22.3389,-0.2905,0.9663,-0.1909,94.8539,-97.0134,-75.1047
310,-5.188,-12.4512,-22.3999,-0.2715,0.9668,-0.1772,92.9181,-93.5894,-53.1991
311,-5.4321,-12.6953,-22.1558,-0.2656,0.9644,-0.1787,98.7254,-99.2961,-56.3285
312,-5.5542,-13.0005,-21.6675,-0.2632,0.957,-0.1748,98.7254,-99.2961,-56.3285
313,-5.249,-13.916,-20.6909,-0.2622,0.9307,-0.1636,102.597,-108.4268,-68.846
314,-4.8828,-14.6484,-20.4468,-0.2598,0.9175,-0.1553,110.3402,-101.5788,-68.846
315,-4.5776,-16.1133,-20.1416,-0.2588,0.9028,-0.1543,94.8539,-101.5788,-87.6221
316,-4.8218,-16.4185,-19.9585,-0.2671,0.9014,-0.1626,94.8539,-101.5788,-87.6221
317,-6.1646,-15.7471,-19.4092,-0.293,0.9146,-0.1694,87.1107,-90.1654,-56.3285
318,-6.5918,-14.8926,-19.165,-0.3125,0.9224,-0.1733,102.597,-103.8614,-75.1047
319,-6.1646,-12.5122,-19.2261,-0.3281,0.9233,-0.1748,89.0465,-93.5894,-71.9753
320,-5.6152,-11.5356,-19.2261,-0.3247,0.9165,-0.1655,89.0465,-93.5894,-71.9753
321,-4.5776,-9.7656,-19.2871,-0.3013,0.9014,-0.1274,110.3402,-97.0134,-75.1047
322,-4.2114,-9.4604,-19.3481,-0.2861,0.8999,-0.1147,96.7897,-91.3067,-84.4927
323,-4.2114,-9.5215,-19.3481,-0.2769,0.9028,-0.103,96.7897,-91.3067,-84.4927
324,-5.127,-9.8267,-18.7988,-0.2759,0.9194,-0.0952,102.597,-94.7307,-81.3634
325,-5.6152,-10.0098,-18.4326,-0.2837,0.9272,-0.1016,92.9181,-105.0028,-84.4927
326,-5.9204,-10.1318,-17.8223,-0.3022,0.9375,-0.1211,87.1107,-99.2961,-75.1047
327,-5.6152,-9.8877,-17.6392,-0.3091,0.9404,-0.1255,87.1107,-99.2961,-75.1047
328,-4.5776,-8.728,-17.7002,-0.3164,0.9395,-0.1284,81.3033,-102.7201,-97.0102
329,-4.2114,-8.1787,-17.5781,-0.3198,0.9385,-0.1196,89.0465,-95.8721,-97.0102
330,-4.0283,-7.5684,-17.395,-0.3193,0.937,-0.106,96.7897,-105.0028,-84.4927
331,-4.2725,-7.3242,-17.334,-0.3096,0.9287,-0.0937,96.7897,-105.0028,-84.4927
332,-4.3945,-7.5073,-17.2729,-0.3057,0.9253,-0.0967,90.9823,-103.8614,-81.3634
333,-4.8218,-8.2397,-16.8457,-0.3096,0.9312,-0.103,85.1749,-105.0028,-78.234
334,-5.0659,-8.728,-16.7236,-0.3066,0.938,-0.106,87.1107,-108.4268,-75.1047
335,-5.0049,-9.7656,-16.6016,-0.3047,0.9561,-0.1201,87.1107,-108.4268,-75.1047
336,-4.6387,-10.376,-16.4795,-0.2959,0.9604,-0.1265,90.9823,-108.4268,-87.6221
337,-3.0518,-11.5356,-16.5405,-0.2808,0.9614,-0.1367,79.3675,-103.8614,-106.3983
338,-2.2583,-12.146,-16.6016,-0.2715,0.958,-0.1289,79.3675,-103.8614,-106.3983
339,-1.709,-14.2212,-15.9302,-0.2681,0.9531,-0.1133,89.0465,-107.2854,-115.7863
340,-2.0142,-15.3809,-15.686,-0.2754,0.9526,-0.1089,79.3675,-110.7094,-93.8808
341,-2.4414,-16.2964,-15.5029,-0.2837,0.9556,-0.1201,90.9823,-103.8614,-93.8808
342,-2.8687,-16.8457,-15.4419,-0.3022,0.959,-0.1265,90.9823,-103.8614,-93.8808
343,-2.8687,-17.5171,-15.4419,-0.3037,0.9551,-0.1279,73.5601,-102.7201,-71.9753
344,-2.8687,-19.3481,-15.686,-0.3096,0.9575,-0.127,81.3033,-102.7201,-84.4927
345,-2.6245,-19.8975,-15.564,-0.3159,0.9551,-0.1289,77.4317,-102.7201,-97.0102
346,-2.1362,-20.0195,-15.1978,-0.3271,0.9458,-0.1221,77.4317,-102.7201,-97.0102
347,-2.0752,-19.8975,-15.0757,-0.335,0.9429,-0.1182,77.4317,-102.7201,-103.2689
348,-2.6855,-19.4702,-15.0146,-0.3481,0.9292,-0.1128,96.7897,-109.5681,-90.7515
349,-3.1128,-19.2871,-15.1367,-0.3491,0.9258,-0.1069,92.9181,-102.7201,-115.7863
350,-3.479,-18.9819,-15.3809,-0.354,0.9253,-0.1177,92.9181,-102.7201,-115.7863
351,-3.418,-18.6157,-15.3809,-0.3545,0.9297,-0.1152,83.2391,-97.0134,-112.657
352,-2.9907,-18.3105,-15.3809,-0.3433,0.916,-0.0947,81.3033,-111.8508,-84.4927
353,-3.3569,-18.9819,-15.4419,-0.3398,0.9072,-0.0918,75.4959,-108.4268,-106.3983
354,-4.2114,-20.2026,-15.3198,-0.3467,0.9111,-0.1074,75.4959,-108.4268,-106.3983
355,-4.3335,-20.4468,-15.1978,-0.3457,0.9063,-0.1138,85.1749,-107.2854,-115.7863
356,-4.4556,-20.813,-15.2588,-0.3462,0.9077,-0.1157,83.2391,-106.1441,-81.3634
357,-4.0283,-22.0947,-15.5029,-0.3398,0.916,-0.125,75.4959,-110.7094,-118.9157
358,-3.7842,-22.8271,-15.564,-0.3354,0.9199,-0.1294,75.4959,-110.7094,-118.9157
359,-3.3569,-24.5972,-15.7471,-0.3203,0.9243,-0.1182,83.2391,-103.8614,-100.1396
360,-3.1128,-25.4517,-15.8691,-0.313,0.9263,-0.1133,67.7528,-106.1441,-100.1396
361,-2.9297,-27.9541,-15.9912,-0.2925,0.9194,-0.1035,79.3675,-110.7094,-106.3983
362,-3.1128,-29.2358,-16.0522,-0.2905,0.9131,-0.1089,79.3675,-110.7094,-106.3983
363,-3.9062,-31.311,-15.8081,-0.3037,0.9165,-0.1064,69.6886,-111.8508,-97.0102
364,-4.2725,-31.9824,-15.8081,-0.3169,0.9253,-0.1045,79.3675,-108.4268,-112.657
365,-4.8218,-32.5317,-15.9912,-0.3315,0.9316,-0.104,89.0465,-109.5681,-103.2689
366,-5.0659,-32.6538,-16.2964,-0.3315,0.9292,-0.104,89.0465,-109.5681,-103.2689
367,-5.188,-33.5693,-16.9678,-0.3179,0.9199,-0.1069,75.4959,-103.8614,-131.4332
368,-5.127,-34.3628,-17.5171,-0.3062,0.917,-0.1001,75.4959,-115.2748,-131.4332
369,-4.7607,-36.8652,-18.3716,-0.2861,0.9263,-0.0894,83.2391,-110.7094,-131.4332
370,-4.6997,-38.208,-18.7988,-0.2764,0.9302,-0.085,83.2391,-110.7094,-131.4332
371,-4.8828,-40.5884,-19.5313,-0.27,0.9277,-0.0913,79.3675,-103.8614,-125.1744
372,-5.127,-41.5039,-19.6533,-0.27,0.9238,-0.0981,75.4959,-106.1441,-112.657
373,-5.6152,-42.5415,-20.5078,-0.2793,0.915,-0.1069,71.6243,-108.4268,-137.6919
374,-6.2256,-42.6636,-21.2402,-0.2842,0.916,-0.1094,71.6243,-108.4268,-137.6919
375,-7.3853,-42.6025,-22.8882,-0.2852,0.9214,-0.1167,60.0096,-103.8614,-162.7268
376,-7.8735,-42.6636,-23.8037,-0.2812,0.9268,-0.1182,96.7897,-109.5681,-147.08
377,-8.2397,-43.0298,-24.7192,-0.2764,0.9292,-0.1187,73.5601,-107.2854,-147.08
378,-9.0332,-43.9453,-26.123,-0.2725,0.9385,-0.1201,73.5601,-107.2854,-147.08
379,-9.9487,-44.5557,-26.8555,-0.2759,0.9438,-0.1191,58.0738,-111.8508,-153.3387
380,-10.9863,-46.3257,-28.7476,-0.2788,0.9463,-0.1348,61.9454,-102.7201,-134.5625
381,-11.2915,-47.0581,-29.7241,-0.2837,0.9468,-0.1455,54.2022,-111.8508,-165.8561
382,-12.3901,-47.7295,-31.25,-0.3027,0.9492,-0.1704,61.9454,-118.6988,-134.5625
383,-13.7939,-47.5464,-31.6772,-0.3188,0.9556,-0.1846,61.9454,-118.6988,-134.5625
384,-17.0898,-45.7153,-33.02,-0.3613,0.9946,-0.1821,69.6886,-107.2854,-165.8561
385,-18.3105,-44.1284,-34.4849,-0.3789,1.0176,-0.1753,48.3948,-115.2748,-168.9855
386,-20.0806,-40.4663,-38.5132,-0.3774,1.0435,-0.1704,50.3306,-107.2854,-134.5625
387,-20.5078,-38.6963,-40.3442,-0.3604,1.0435,-0.1733,50.3306,-107.2854,-134.5625
388,-22.1558,-35.7666,-42.9688,-0.314,1.0376,-0.1655,54.2022,-116.4161,-153.3387
389,-23.4985,-34.6069,-43.8843,-0.2969,1.0381,-0.1572,50.3306,-118.6988,-178.3736
390,-26.7944,-31.9214,-46.2646,-0.2788,1.0513,-0.1475,60.0096,-119.8401,-168.9855
391,-28.5645,-30.0903,-47.6074,-0.2725,1.0596,-0.1484,60.0096,-119.8401,-168.9855
392,-32.7148,-26.3062,-50.8423,-0.2671,1.084,-0.144,60.0096,-117.5574,-187.7617
393,-34.4238,-24.4751,-52.7954,-0.2632,1.104,-0.1392,40.6516,-110.7094,-168.9855
394,-37.3535,-21.4233,-57.1899,-0.2407,1.1558,-0.124,50.3306,-120.9814,-159.5974
395,-38.3911,-20.5078,-59.1431,-0.2183,1.1753,-0.1211,50.3306,-120.9814,-159.5974
396,-39.7949,-19.5313,-62.0728,-0.1582,1.1821,-0.1182,32.9085,-112.9921,-181.5029
397,-40.2832,-19.8975,-62.9883,-0.1245,1.1743,-0.1123,34.8443,-114.1334,-184.6323
398,-40.5884,-22.522,-65.0635,-0.0781,1.1519,-0.0874,32.9085,-122.1228,-194.0204
399,-40.6494,-24.292,-66.2842,-0.063,1.1392,-0.0771,32.9085,-122.1228,-194.0204
400,-40.5884,-27.9541,-68.5425,-0.0566,1.1157,-0.0566,32.9085,-117.5574,-200.2791
401,-40.7715,-29.7852,-69.7021,-0.0679,1.1045,-0.0518,32.9085,-126.6881,-200.2791
402,-41.748,-31.9824,-71.9604,-0.0967,1.0732,-0.0459,25.1653,-115.2748,-212.7966
403,-42.3584,-32.2876,-73.1201,-0.1147,1.0518,-0.0435,27.1011,-118.6988,-197.1497
404,-43.8232,-32.2266,-75.9888,-0.147,1.021,-0.0361,27.1011,-118.6988,-197.1497
405,-44.4946,-31.7993,-77.3315,-0.1636,1.0068,-0.0288,9.679,-122.1228,-212.7966
406,-45.105,-30.3345,-79.6509,-0.1919,0.9854,-0.0215,21.2937,-128.9708,-206.5378
407,-45.7764,-29.3579,-80.3833,-0.2051,0.9775,-0.0151,13.5506,-128.9708,-212.7966
408,-46.1426,-26.8555,-81.1768,-0.2236,0.96,-0.0166,13.5506,-128.9708,-212.7966
409,-46.0815,-25.5127,-81.7261,-0.2339,0.9458,-0.0146,25.1653,-122.1228,-212.7966
410,-44.7998,-24.292,-82.5806,-0.2686,0.9385,-0.0083,21.2937,-126.6881,-250.3489
411,-43.5181,-24.292,-81.9092,-0.293,0.9321,-0.0098,-15.4863,-118.6988,-228.4434
412,-40.7104,-25.7568,-77.8809,-0.3467,0.897,0.0029,-15.4863,-118.6988,-228.4434
413,-38.3301,-27.5269,-74.9512,-0.3711,0.8843,0.0244,-9.679,-124.4054,-237.8315
414,-34.668,-32.3486,-67.1387,-0.4678,0.8921,0.0103,-25.1653,-110.7094,-244.0902
415,-33.0811,-33.8745,-63.6597,-0.5137,0.8789,0.0073,-29.0369,-117.5574,-244.0902
416,-24.8413,-35.4614,-58.2275,-0.6055,0.8599,0.0654,-29.0369,-117.5574,-244.0902
417,-22.0947,-37.0483,-56.1523,-0.6665,0.8662,0.0854,-5.8074,-122.1228,-237.8315
418,-14.5264,-39.4287,-50.6592,-0.7349,0.8643,0.1279,-15.4863,-114.1334,-240.9608
419,-11.5356,-41.3818,-47.0581,-0.7583,0.8545,0.1577,-9.679,-115.2748,-262.8663
420,-8.4229,-46.2036,-41.9922,-0.8223,0.8149,0.1797,-9.679,-115.2748,-262.8663
421,-7.2632,-48.5229,-40.9546,-0.854,0.8018,0.1426,-36.7801,-122.1228,-237.8315
422,-3.9062,-47.0581,-39.3677,-0.8848,0.7661,0.146,-11.6147,-120.9814,-253.4783
423,-3.2349,-45.8984,-39.0015,-0.8936,0.7642,0.1372,-30.9727,-118.6988,-247.2195
424,0.7935,-42.0532,-36.8042,-0.9219,0.7969,0.1982,-30.9727,-118.6988,-247.2195
425,3.418,-41.1987,-34.1187,-0.9321,0.7876,0.2241,-36.7801,-122.1228,-287.9012
426,6.5918,-40.5884,-31.1279,-0.936,0.7568,0.2329,-30.9727,-114.1334,-259.737
427,12.0239,-37.6587,-27.0386,-0.9331,0.7085,0.2681,-34.8443,-107.2854,-259.737
428,12.5732,-36.1938,-25.0854,-0.9209,0.6904,0.3135,-34.8443,-107.2854,-259.737
429,10.437,-36.9873,-21.1792,-0.8452,0.6606,0.4004,-34.8443,-111.8508,-278.5132
430,7.9956,-38.9404,-19.3481,-0.8013,0.6724,0.415,-34.8443,-111.8508,-265.9957
431,2.5024,-42.0532,-13.6108,-0.6792,0.7578,0.3472,-38.7158,-111.8508,-272.2544
432,-0.3052,-42.2974,-7.9346,-0.6216,0.7988,0.2954,-38.7158,-111.8508,-272.2544
433,-2.8687,-39.6118,7.6294,-0.5356,0.8091,0.1841,-54.2022,-105.0028,-222.1846
434,-1.8921,-37.3535,15.8691,-0.5181,0.8013,0.1279,-44.5232,-110.7094,-262.8663
435,7.3853,-31.6772,32.2266,-0.5293,0.7676,0.042,-44.5232,-99.2961,-275.3838
436,15.8081,-28.9307,39.6118,-0.5605,0.7505,0.0122,-44.5232,-99.2961,-275.3838
437,37.7197,-22.7661,51.0254,-0.6455,0.7158,0.0181,-48.3948,-106.1441,-262.8663
438,49.6216,-19.2871,54.5044,-0.6777,0.7104,0.0552,-44.5232,-106.1441,-269.1251
439,60.6079,-15.9302,57.1289,-0.6934,0.7168,0.1045,-46.459,-93.5894,-259.737
440,76.355,-9.5825,62.6221,-0.6904,0.7217,0.2046,-46.459,-93.5894,-259.737
441,80.1392,-5.9204,65.918,-0.6768,0.709,0.2412,-52.2664,-101.5788,-256.6076
442,80.8105,3.1128,71.9604,-0.6494,0.6968,0.2715,-42.5874,-100.4374,-265.9957
443,79.2236,8.4839,74.8901,-0.6294,0.6875,0.2773,-34.8443,-95.8721,-253.4783
444,74.707,19.7754,80.5664,-0.5918,0.6812,0.293,-34.8443,-95.8721,-253.4783
445,71.8384,25.1465,83.4961,-0.582,0.6738,0.2925,-34.8443,-89.0241,-272.2544
446,68.8477,30.5176,86.4868,-0.582,0.6631,0.2817,-19.3579,-89.0241,-240.9608
447,63.2935,40.0391,93.4448,-0.5933,0.627,0.2505,-19.3579,-89.0241,-240.9608
448,60.2417,44.2505,97.0459,-0.6064,0.6265,0.2266,-50.3306,-89.0241,-222.1846
449,56.3354,51.3916,104.9805,-0.6255,0.6475,0.1846,-36.7801,-85.6001,-237.8315
450,56.8237,54.0771,108.5205,-0.6221,0.6704,0.1626,-40.6516,-78.7521,-212.7966
451,62.0117,57.9834,113.6475,-0.5869,0.7153,0.1069,-40.6516,-78.7521,-212.7966
452,65.6738,60.3638,115.2954,-0.562,0.749,0.0752,-36.7801,-76.4694,-244.0902
453,69.2749,63.1714,117.0654,-0.5303,0.7808,0.0532,-36.7801,-76.4694,-219.0553
454,76.0498,67.8101,121.8872,-0.4619,0.8438,0.0957,-21.2937,-71.9041,-187.7617
455,79.4678,68.4204,124.8779,-0.4321,0.8701,0.1348,-21.2937,-71.9041,-187.7617
456,85.6323,64.9414,132.6904,-0.3716,0.8892,0.2017,-44.5232,-71.9041,-187.7617
457,88.0737,60.9741,137.207,-0.3511,0.8809,0.2173,-48.3948,-71.9041,-206.5378
458,90.5151,50.7202,146.4844,-0.3389,0.8706,0.2197,-48.3948,-71.9041,-206.5378
459,91.4917,44.9829,150.6348,-0.3408,0.8726,0.2095,-30.9727,-66.1974,-190.891
460,94.1162,33.9355,157.2876,-0.3726,0.9033,0.2007,-17.4221,-60.4907,-181.5029
461,95.7031,28.9307,159.8511,-0.4019,0.9248,0.1855,-34.8443,-57.0667,-209.6672
462,96.8628,24.9634,162.2314,-0.4414,0.9438,0.1733,-34.8443,-57.0667,-209.6672
463,97.7783,19.6533,165.5884,-0.5171,0.9453,0.1309,-32.9085,-51.36,-194.0204
464,97.3511,18.6768,165.8325,-0.5586,0.9507,0.1094,-23.2295,-52.5014,-197.1497
465,95.7642,20.5078,164.4897,-0.623,0.9595,0.0776,-29.0369,-44.512,-168.9855
466,94.6045,23.7427,162.7808,-0.6406,0.9541,0.0645,-29.0369,-44.512,-168.9855
467,90.6372,34.3628,157.8369,-0.6489,0.9136,0.0625,-13.5505,-51.36,-162.7268
468,87.2803,40.2832,154.7852,-0.6392,0.8921,0.0679,-17.4221,-37.664,-150.2093
469,78.186,49.4995,148.1934,-0.564,0.9023,0.0801,-29.0369,-39.9467,-150.2093
470,73.9746,51.8188,145.6299,-0.5044,0.9268,0.0762,-29.0369,-39.9467,-150.2093
471,71.4111,52.6123,143.3105,-0.4443,0.9536,0.0625,-25.1653,-49.0774,-143.9506
472,70.4346,51.9409,138.7939,-0.3037,1.0171,0.0464,-19.3579,-29.6747,-153.3387
473,71.4722,49.8047,137.2681,-0.2476,1.0366,0.0361,-15.4863,-15.9787,-140.8212
474,73.7915,43.457,134.9487,-0.168,1.0547,0.0103,-15.4863,-15.9787,-140.8212
475,74.7681,39.1846,133.3008,-0.1401,1.0596,0.0171,-19.3579,-31.9574,-128.3038
476,77.1484,26.4893,129.2725,-0.1035,1.0532,0.0522,-17.4221,-26.2507,-150.2093
477,78.6743,18.4937,126.4648,-0.0996,1.04,0.0635,-17.4221,-26.2507,-150.2093
478,82.0923,2.6855,119.3848,-0.123,1.002,0.064,-21.2937,-35.3814,-118.9157
479,82.8247,-4.2114,115.6006,-0.1602,0.979,0.0498,-38.7158,-20.544,-128.3038
480,82.2144,-9.9487,111.7554,-0.2085,0.9458,0.0303,-21.2937,-19.4027,-112.657
481,78.4302,-17.1509,103.3325,-0.3325,0.8647,-0.0054,-21.2937,-19.4027,-112.657
482,76.355,-19.2871,98.4497,-0.3779,0.8364,-0.02,-21.2937,-19.4027,-112.657
483,70.9839,-20.2637,87.9517,-0.4316,0.8008,-0.0371,-17.4221,-12.5547,-150.2093
484,67.5049,-18.7378,82.4585,-0.4385,0.7886,-0.0479,-32.9085,-17.12,-125.1744
485,58.4106,-12.085,70.1294,-0.4209,0.7261,-0.062,-32.9085,-17.12,-125.1744
486,52.8564,-7.6904,62.7441,-0.397,0.7007,-0.0674,-36.7801,-7.9893,-125.1744
487,39.7949,0.7324,46.7529,-0.3408,0.6919,-0.0562,-29.0369,-17.12,-131.4332
488,33.5083,4.0894,38.8184,-0.3008,0.6982,-0.0454,-25.1653,-10.272,-118.9157
489,28.2593,6.0425,31.189,-0.2617,0.7153,-0.0444,-25.1653,-10.272,-118.9157
490,20.2637,7.1411,16.1133,-0.2002,0.7388,-0.0664,-30.9727,-22.8267,-115.7863
491,16.9678,6.958,9.0942,-0.1812,0.7524,-0.0645,-19.3579,-20.544,-109.5276
492,10.5591,5.4932,-4.0283,-0.1763,0.7754,-0.0425,-19.3579,-20.544,-109.5276
493,7.3853,4.4556,-10.0098,-0.1934,0.7729,-0.0269,-21.2937,-10.272,-125.1744
494,0.7324,2.5635,-21.9116,-0.2549,0.729,0.0005,-29.0369,-3.424,-106.3983
495,-2.4414,2.0142,-27.6489,-0.2676,0.7256,-0.0039,-27.1011,-13.696,-115.7863
496,-6.4697,2.1362,-32.4097,-0.2812,0.7432,0.0073,-27.1011,-13.696,-115.7863
497,-14.8926,3.3569,-41.2598,-0.3511,0.7871,-0.0112,-23.2295,-15.9787,-128.3038
498,-18.1885,4.5776,-46.2036,-0.3916,0.7969,-0.0488,-21.2937,-12.5547,-106.3983
499,-22.0947,9.4604,-53.772,-0.4355,0.8145,-0.0684,-36.7801,-19.4027,-150.2093
500,-22.9492,12.6343,-55.9692,-0.4214,0.8633,-0.0396,-36.7801,-19.4027,-150.2093
501,-25.1465,20.813,-55.3589,-0.2783,1.061,-0.0068,-32.9085,-23.968,-125.1744
502,-26.6724,26.123,-51.3916,-0.1743,1.1514,-0.0288,-36.7801,-17.12,-100.1396
503,-32.8979,36.377,-36.8042,-0.0039,1.2544,-0.1724,-29.0369,-21.6854,-125.1744
504,-36.499,41.5649,-28.0762,0.0469,1.2754,-0.2705,-29.0369,-21.6854,-125.1744
505,-37.1094,50.1099,-12.9395,0.1348,1.2881,-0.4619,-44.5232,-17.12,-131.4332
506,-31.8604,52.7344,-8.8501,0.165,1.2856,-0.5386,-30.9727,-18.2613,-109.5276
507,-23.1323,54.5654,-8.5449,0.1812,1.291,-0.5532,-40.6516,-14.8373,-131.4332
508,-2.6855,54.1992,-19.6533,0.1558,1.3179,-0.5127,-40.6516,-14.8373,-131.4332
509,4.6387,51.8799,-28.8086,0.0967,1.3164,-0.4634,-42.5874,-13.696,-122.0451
510,13.4277,45.5322,-47.1802,-0.0811,1.2998,-0.292,-40.6516,-17.12,-125.1744
511,14.8926,43.1519,-53.9551,-0.1362,1.2783,-0.1665,-40.6516,-17.12,-125.1744
512,12.6953,40.2222,-61.8286,-0.0986,1.2207,0.1431,-34.8443,-25.1093,-122.0451
513,7.9956,36.9873,-62.3779,-0.0088,1.1924,0.2964,-36.7801,-21.6854,-125.1744
514,-9.4604,21.4844,-57.251,0.2456,1.1421,0.4727,-48.3948,-26.2507,-131.4332
515,-21.2402,9.3384,-53.5889,0.353,1.104,0.4263,-48.3948,-26.2507,-131.4332
516,-31.6162,-5.0659,-51.0254,0.3955,1.1079,0.292,-32.9085,-23.968,-106.3983
517,-35.5835,-40.7104,-46.2646,0.2969,1.2524,0.0229,-46.459,-22.8267,-134.5625
518,-25.0854,-59.9976,-43.8232,0.1733,1.29,-0.166,-25.1653,-12.5547,-150.2093
519,4.5166,-80.9937,-39.978,-0.1245,1.1855,-0.3599,-25.1653,-12.5547,-150.2093
520,15.1367,-81.1768,-36.9263,-0.248,1.0435,-0.3213,-23.2295,-27.392,-159.5974
521,15.1978,-66.8945,-30.9448,-0.4541,0.7266,-0.2476,-34.8443,-36.5227,-159.5974
522,7.6294,-54.4434,-30.2734,-0.5498,0.6182,-0.2368,-34.8443,-18.2613,-147.08
523,-12.6953,-27.9541,-32.5928,-0.6797,0.5391,-0.2227,-34.8443,-18.2613,-147.08
524,-21.6064,-17.7612,-35.5835,-0.6675,0.5684,-0.2217,-42.5874,-20.544,-153.3387
525,-28.6255,-6.5308,-44.4336,-0.4497,0.7695,-0.3457,-46.459,-15.9787,-134.5625
526,-24.9023,-2.0752,-46.875,-0.3101,0.9019,-0.3853,-42.5874,-22.8267,-147.08
527,-11.7798,5.9814,-43.6401,-0.0874,1.0366,-0.2456,-42.5874,-22.8267,-147.08
528,-5.8594,7.8125,-40.7104,-0.0288,1.0166,-0.0879,-50.3306,-31.9574,-140.8212
529,-1.5259,0.5493,-36.3159,-0.019,0.9097,0.0962,-60.0096,-26.2507,-143.9506
530,-3.6621,-5.6763,-35.0342,-0.0474,0.8809,0.0923,-61.9454,-31.9574,-159.5974
531,-6.897,-11.2305,-34.1187,-0.0854,0.8906,0.0498,-61.9454,-31.9574,-159.5974
532,-10.8032,-17.9443,-33.5083,-0.1758,0.9521,-0.0742,-44.5232,-37.664,-143.9506
533,-10.0708,-18.7988,-33.7524,-0.2134,0.979,-0.1221,-44.5232,-30.816,-156.468
534,-7.7515,-15.3809,-34.3628,-0.2656,0.9897,-0.1675,-56.138,-33.0987,-175.2442
535,-7.8125,-11.4746,-34.3628,-0.2905,0.9766,-0.1821,-56.138,-33.0987,-175.2442
536,-11.1084,-1.2207,-34.9731,-0.3174,0.9365,-0.2241,-65.8169,-31.9574,-159.5974
537,-13.3667,4.0283,-35.5835,-0.3218,0.9321,-0.2495,-50.3306,-38.8053,-140.8212
538,-15.9912,13.3057,-37.4146,-0.2949,0.9502,-0.292,-58.0738,-36.5227,-165.8561
539,-16.0522,16.7236,-38.3301,-0.2651,0.9707,-0.2949,-58.0738,-36.5227,-165.8561
540,-14.9536,19.5313,-38.8794,-0.1987,1.0107,-0.2661,-60.0096,-33.0987,-143.9506
541,-14.2212,18.9819,-38.4521,-0.1768,1.022,-0.251,-65.8169,-29.6747,-159.5974
542,-12.6343,14.0381,-37.1704,-0.147,1.0254,-0.2275,-52.2664,-39.9467,-168.9855
543,-11.8408,10.0098,-36.3159,-0.1465,1.0161,-0.2231,-52.2664,-39.9467,-168.9855
544,-10.3149,0.6104,-34.5459,-0.1641,1.0078,-0.2065,-42.5874,-34.24,-147.08
545,-9.6436,-4.0283,-33.6304,-0.1812,0.9937,-0.1958,-71.6243,-35.3814,-162.7268
546,-9.0942,-12.207,-32.1655,-0.2227,0.9854,-0.1904,-52.2664,-35.3814,-175.2442
547,-9.5825,-15.0757,-31.3721,-0.2456,0.9775,-0.2007,-52.2664,-35.3814,-175.2442
548,-10.9253,-18.3716,-30.0293,-0.29,0.978,-0.2158,-67.7527,-42.2294,-162.7268
549,-11.3525,-19.3481,-29.6021,-0.3047,0.9883,-0.2207,-61.9454,-36.5227,-165.8561
550,-11.5356,-20.0806,-29.2969,-0.3052,1.0,-0.2217,-48.3948,-39.9467,-187.7617
551,-10.8643,-21.1182,-29.0527,-0.272,1.0015,-0.2046,-48.3948,-39.9467,-187.7617
552,-10.437,-21.7896,-28.8086,-0.251,0.9927,-0.1851,-46.459,-31.9574,-153.3387
553,-9.9487,-24.1699,-27.2217,-0.2217,0.9653,-0.1489,-52.2664,-35.3814,-143.9506
554,-10.1318,-25.6958,-26.5503,-0.2231,0.9478,-0.1318,-67.7527,-35.3814,-187.7617
555,-10.8643,-28.0151,-25.0854,-0.2461,0.9185,-0.1323,-67.7527,-35.3814,-187.7617
556,-11.2305,-28.6255,-24.7192,-0.2642,0.9087,-0.1479,-65.8169,-29.6747,-165.8561
557,-11.8408,-29.6631,-24.353,-0.2969,0.9116,-0.1543,-60.0096,-46.7947,-162.7268
558,-11.4746,-30.0903,-24.292,-0.3091,0.9136,-0.1548,-54.2022,-43.3707,-153.3387
559,-10.6812,-30.6396,-24.1089,-0.3228,0.9155,-0.1528,-54.2022,-43.3707,-153.3387
560,-10.1929,-30.5786,-23.6816,-0.3271,0.9092,-0.146,-56.138,-30.816,-156.468
561,-9.0942,-30.0903,-22.7051,-0.3369,0.895,-0.1206,-61.9454,-45.6534,-165.8561
562,-8.5449,-29.8462,-22.3999,-0.3423,0.8911,-0.105,-61.9454,-29.6747,-172.1149
563,-8.0566,-29.541,-21.7285,-0.3516,0.8857,-0.083,-71.6243,-49.0774,-168.9855
564,-7.9346,-29.541,-21.5454,-0.3525,0.897,-0.0713,-71.6243,-49.0774,-168.9855
565,-7.2632,-29.4189,-21.1792,-0.3569,0.9141,-0.0591,-71.6243,-37.664,-194.0204
566,-6.7749,-29.1138,-20.813,-0.3594,0.9155,-0.0542,-63.8812,-37.664,-181.5029
567,-6.1646,-27.832,-19.5923,-0.3604,0.8965,-0.0469,-58.0738,-29.6747,-172.1149
568,-5.6763,-27.2827,-19.104,-0.3584,0.8818,-0.04,-58.0738,-29.6747,-172.1149
569,-5.249,-26.3062,-18.7988,-0.3672,0.8672,-0.0552,-60.0096,-44.512,-219.0553
570,-5.9814,-25.5127,-18.5547,-0.373,0.8672,-0.062,-71.6243,-44.512,-200.2791
571,-7.8125,-24.7803,-18.2495,-0.3726,0.8921,-0.0854,-90.9823,-46.7947,-212.7966
572,-8.1177,-24.8413,-18.3716,-0.3711,0.9175,-0.1016,-90.9823,-46.7947,-212.7966
573,-6.8359,-24.292,-17.7612,-0.3521,0.9404,-0.1255,-73.5601,-41.088,-172.1149
574,-5.7373,-24.0479,-17.395,-0.3394,0.9355,-0.1226,-77.4317,-25.1093,-165.8561
575,-4.3945,-24.1089,-16.4795,-0.3193,0.8999,-0.1035,-58.0738,-43.3707,-153.3387
576,-4.3945,-24.4141,-16.2354,-0.3184,0.8872,-0.1011,-58.0738,-43.3707,-153.3387
577,-5.3101,-25.1465,-16.1133,-0.3423,0.894,-0.1172,-77.4317,-45.6534,-197.1497
578,-5.8594,-24.9023,-15.9912,-0.356,0.9097,-0.1221,-67.7527,-35.3814,-175.2442
579,-6.6528,-23.3765,-16.1743,-0.3691,0.9434,-0.123,-83.2391,-44.512,-206.5378
580,-6.7749,-22.522,-16.4795,-0.3628,0.9585,-0.1152,-83.2391,-44.512,-206.5378
581,-6.958,-21.7896,-16.7236,-0.3481,0.9688,-0.1084,-83.2391,-37.664,-200.2791
582,-7.2021,-21.4233,-16.9678,-0.3042,0.9731,-0.0908,-75.4959,-49.0774,-200.2791
583,-7.3853,-21.9116,-16.9678,-0.2842,0.9712,-0.0913,-61.9454,-45.6534,-190.891
584,-7.6294,-23.2544,-16.9067,-0.2754,0.9751,-0.0869,-61.9454,-45.6534,-190.891
585,-7.6904,-24.292,-16.8457,-0.2729,0.9731,-0.0854,-87.1107,-46.7947,-194.0204
586,-8.3008,-26.062,-17.2119,-0.293,0.9736,-0.1069,-71.6243,-42.2294,-206.5378
587,-8.606,-26.4282,-17.334,-0.3037,0.9731,-0.1157,-83.2391,-35.3814,-206.5378
588,-9.1553,-26.123,-18.1274,-0.3135,0.9688,-0.1328,-83.2391,-35.3814,-206.5378
589,-9.3994,-25.3906,-18.5547,-0.3159,0.96,-0.1484,-71.6243,-39.9467,-187.7617
590,-10.2539,-23.1934,-19.7144,-0.3169,0.937,-0.1621,-81.3033,-41.088,-203.4085
591,-10.7422,-22.0337,-20.3247,-0.3154,0.9365,-0.1602,-77.4317,-31.9574,-197.1497
592,-11.7798,-19.8364,-21.9727,-0.2979,0.9458,-0.1426,-77.4317,-31.9574,-197.1497
593,-12.085,-18.9819,-22.8882,-0.2856,0.9482,-0.1304,-77.4317,-38.8053,-190.891
594,-12.9395,-18.1885,-24.292,-0.2627,0.9468,-0.1089,-61.9454,-45.6534,-197.1497
595,-13.4277,-18.1885,-24.8413,-0.2568,0.9438,-0.0981,-73.5601,-36.5227,-178.3736
596,-14.8926,-18.6157,-25.9399,-0.2554,0.938,-0.0923,-73.5601,-36.5227,-178.3736
597,-15.5029,-18.9209,-26.4893,-0.2583,0.938,-0.084,-77.4317,-38.8053,-203.4085
598,-16.6016,-20.0806,-27.71,-0.272,0.9341,-0.0869,-63.8812,-42.2294,-187.7617
599,-17.2119,-20.6909,-28.1372,-0.2808,0.9336,-0.0913,-69.6885,-43.3707,-203.4085
600,-18.6157,-21.7285,-29.2969,-0.2974,0.9434,-0.0898,-69.6885,-43.3707,-203.4085
601,-19.104,-22.0337,-30.1514,-0.2935,0.9424,-0.0869,-90.9823,-44.512,-194.0204
602,-19.8975,-22.7661,-31.6772,-0.2646,0.9395,-0.0781,-90.9823,-44.512,-219.0553
603,-20.2026,-23.4985,-32.2876,-0.2529,0.9331,-0.0825,-77.4317,-47.936,-209.6672
604,-21.1792,-25.4517,-33.0811,-0.2622,0.9263,-0.085,-98.7254,-39.9467,-219.0553
605,-21.7285,-26.3672,-33.5083,-0.2739,0.9321,-0.0908,-98.7254,-39.9467,-219.0553
606,-22.8882,-27.5879,-34.729,-0.2856,0.9351,-0.0864,-87.1107,-35.3814,-219.0553
607,-23.5596,-28.1372,-35.5835,-0.2793,0.9316,-0.0933,-75.4959,-49.0774,-219.0553
608,-25.4517,-29.4189,-37.5366,-0.2656,0.9409,-0.1045,-100.6612,-47.936,-215.9259
609,-26.4893,-30.1514,-38.3911,-0.2559,0.9541,-0.103,-100.6612,-47.936,-215.9259
610,-28.1372,-31.9824,-39.6729,-0.2603,0.9658,-0.1211,-96.7896,-52.5014,-215.9259
611,-29.4189,-32.8369,-40.0391,-0.2812,0.9761,-0.1348,-94.8538,-46.7947,-219.0553
612,-32.1045,-33.5083,-40.3442,-0.3394,1.0244,-0.146,-87.1107,-51.36,-219.0553
613,-33.2031,-33.2642,-41.0156,-0.3613,1.0459,-0.1484,-87.1107,-51.36,-219.0553
614,-34.2407,-31.1279,-43.457,-0.3711,1.064,-0.1392,-94.8538,-44.512,-225.314
615,-34.3628,-29.7241,-44.7998,-0.3545,1.0547,-0.1323,-106.4686,-39.9467,-237.8315
616,-34.5459,-27.2827,-47.4243,-0.3057,1.0249,-0.1094,-104.5328,-41.088,-234.7021
617,-35.4004,-26.4893,-48.5229,-0.291,1.0112,-0.1011,-104.5328,-41.088,-234.7021
618,-38.5742,-25.7568,-50.1709,-0.2842,1.0044,-0.1055,-94.8538,-49.0774,-244.0902
619,-40.6494,-25.5127,-50.9033,-0.2856,1.0156,-0.1118,-100.6612,-41.088,-228.4434
620,-43.7012,-24.7803,-53.4668,-0.2754,1.0571,-0.1099,-98.7254,-44.512,-231.5727
621,-44.4946,-24.1699,-55.0537,-0.2563,1.0776,-0.1099,-106.4686,-46.7947,-244.0902
622,-46.0205,-23.0713,-57.9224,-0.2134,1.0972,-0.1128,-106.4686,-46.7947,-244.0902
623,-47.2412,-22.4609,-59.1431,-0.1953,1.1001,-0.1167,-114.2118,-51.36,-237.8315
624,-51.2695,-21.9116,-61.2793,-0.1821,1.1187,-0.1255,-127.7623,-54.784,-253.4783
625,-53.6499,-22.0337,-62.6221,-0.1831,1.1416,-0.1265,-118.0834,-49.0774,-256.6076
626,-57.1899,-22.7661,-65.6128,-0.1797,1.2012,-0.1304,-118.0834,-49.0774,-256.6076
627,-58.1665,-23.0713,-67.3828,-0.1655,1.2251,-0.1328,-135.5055,-47.936,-253.4783
628,-58.2886,-23.5596,-70.9839,-0.1162,1.2231,-0.1313,-120.0191,-43.3707,-247.2195
629,-57.8003,-23.8647,-72.8149,-0.0864,1.21,-0.1299,-123.8907,-54.784,-253.4783
630,-57.6172,-25.1465,-75.6836,-0.0435,1.168,-0.1162,-123.8907,-54.784,-253.4783
631,-58.5327,-26.1841,-76.5991,-0.0312,1.1509,-0.1055,-125.8265,-49.0774,-262.8663
632,-59.8145,-27.8931,-77.8809,-0.0376,1.1167,-0.1108,-135.5055,-50.2187,-272.2544
633,-60.5469,-28.3203,-78.186,-0.0552,1.103,-0.1211,-118.0834,-49.0774,-237.8315
634,-61.2793,-26.8555,-78.8574,-0.1089,1.061,-0.144,-143.2487,-50.2187,-259.737
635,-60.9741,-25.1465,-79.3457,-0.1499,1.04,-0.1499,-143.2487,-50.2187,-259.737
636,-59.5093,-21.8506,-79.7729,-0.2412,0.9888,-0.1333,-147.1202,-57.0667,-278.5132
637,-58.1665,-20.9351,-79.4678,-0.292,0.9688,-0.127,-150.9918,-47.936,-291.0306
638,-53.4058,-20.1416,-77.8198,-0.4023,0.936,-0.104,-149.056,-55.9254,-275.3838
639,-49.8047,-19.6533,-76.2939,-0.4541,0.9238,-0.0854,-149.056,-55.9254,-275.3838
640,-41.0156,-18.1885,-71.5942,-0.5474,0.9028,-0.0176,-150.9918,-50.2187,-291.0306
641,-36.6821,-17.8223,-68.4814,-0.5845,0.8848,0.0278,-160.6708,-51.36,-262.8663
642,-27.771,-20.1416,-62.0728,-0.6436,0.8682,0.1304,-166.4782,-50.2187,-291.0306
643,-24.292,-22.4609,-58.96,-0.6992,0.8594,0.1338,-166.4782,-50.2187,-291.0306
644,-17.8223,-24.353,-56.2134,-0.7749,0.8071,0.1313,-168.414,-46.7947,-281.6425
645,-13.3667,-24.1699,-55.7861,-0.7939,0.7725,0.1621,-187.7719,-60.4907,-281.6425
646,-9.5825,-25.3296,-55.7861,-0.8579,0.7476,0.2246,-166.4782,-47.936,-328.5829
647,-7.7515,-24.9634,-54.7485,-0.8721,0.728,0.2485,-166.4782,-47.936,-328.5829
648,-5.5542,-25.5737,-48.5229,-0.874,0.6782,0.2827,-172.2856,-51.36,-306.6774
649,-5.9204,-25.5737,-45.2271,-0.8843,0.6772,0.3013,-174.2213,-47.936,-309.8068
650,-8.1177,-23.3765,-39.0625,-0.8965,0.689,0.334,-178.0929,-45.6534,-303.5481
651,-9.5215,-22.0947,-36.1328,-0.8994,0.6831,0.3643,-178.0929,-45.6534,-303.5481
652,-9.5825,-21.0571,-30.4565,-0.875,0.6289,0.3789,-185.8361,-45.6534,-297.2893
653,-10.8032,-20.813,-28.0151,-0.8579,0.6182,0.3892,-178.0929,-54.784,-297.2893
654,-15.0146,-21.0571,-22.1558,-0.8218,0.6377,0.3882,-183.9003,-53.6427,-306.6774
655,-17.5171,-20.752,-18.6768,-0.7939,0.6514,0.3818,-189.7077,-47.936,-316.0655
656,-22.583,-19.2871,-10.498,-0.7148,0.7217,0.2935,-189.7077,-47.936,-316.0655
657,-24.1089,-17.2729,-4.6997,-0.6714,0.7559,0.2397,-178.0929,-68.48,-303.5481
658,-22.8271,-11.2305,10.1318,-0.6074,0.7881,0.1357,-189.7077,-54.784,-328.5829
659,-19.8364,-7.7515,18.0664,-0.6016,0.7881,0.0923,-187.7719,-51.36,-294.1599
660,-8.606,1.0376,32.5928,-0.644,0.7617,0.0088,-187.7719,-51.36,-294.1599
661,-0.3052,6.3477,38.7573,-0.6851,0.7271,-0.019,-205.194,-57.0667,-322.3242
662,17.9443,19.165,47.6685,-0.7471,0.646,-0.0132,-203.2582,-51.36,-312.9361
663,26.6724,25.7568,50.6592,-0.769,0.6274,0.0234,-203.2582,-51.36,-312.9361
664,33.2642,31.9214,53.3447,-0.7788,0.6304,0.0864,-183.9003,-60.4907,-325.4536
665,42.7856,41.687,58.3496,-0.7695,0.666,0.2046,-201.3224,-61.632,-328.5829
666,46.5088,45.5322,61.9507,-0.7354,0.6499,0.2559,-183.9003,-58.208,-325.4536
667,48.2788,49.8657,69.6411,-0.6489,0.6343,0.3003,-183.9003,-58.208,-325.4536
668,47.4243,51.5137,73.7305,-0.6138,0.647,0.3154,-178.0929,-59.3494,-347.3591
669,45.8374,53.3447,83.9844,-0.5649,0.6733,0.3291,-170.3498,-57.0667,-316.0655
670,45.6543,53.9551,89.4775,-0.5425,0.6777,0.3267,-193.5793,-68.48,-341.1004
671,46.3867,54.4434,99.3652,-0.5259,0.6812,0.3115,-193.5793,-68.48,-341.1004
672,47.7295,54.5654,103.5767,-0.5283,0.6797,0.2896,-183.9003,-62.7734,-294.1599
673,49.3164,54.9316,107.666,-0.5337,0.6782,0.2622,-189.7077,-52.5014,-341.1004
674,53.4668,56.3965,115.4175,-0.5566,0.6841,0.2339,-178.0929,-68.48,-334.8416
675,56.3965,57.0068,119.6289,-0.5615,0.687,0.2227,-178.0929,-68.48,-334.8416
676,63.6597,58.2886,127.6245,-0.5645,0.7187,0.207,-178.0929,-66.1974,-334.8416
677,67.9932,58.6548,131.7749,-0.5649,0.7373,0.1997,-172.2856,-62.7734,-337.971
678,76.9653,59.3262,140.3809,-0.5566,0.7568,0.1919,-174.2213,-73.0454,-353.6178
679,80.9937,59.5093,144.043,-0.5464,0.771,0.1987,-174.2213,-73.0454,-353.6178
680,89.7827,59.082,149.7803,-0.5293,0.8174,0.2422,-166.4782,-68.48,-328.5829
681,94.4824,58.4106,153.1372,-0.5244,0.8281,0.2607,-172.2856,-81.0347,-331.7123
682,100.769,55.603,161.0718,-0.5156,0.8101,0.2715,-152.9276,-67.3387,-319.1949
683,102.417,53.772,164.7339,-0.5146,0.8013,0.2793,-152.9276,-67.3387,-319.1949
684,105.7739,50.2319,169.6777,-0.5171,0.8296,0.2915,-164.5424,-74.1867,-331.7123
685,107.4829,48.3398,171.1426,-0.5249,0.8569,0.2886,-149.056,-67.3387,-319.1949
686,109.8633,45.2271,174.0112,-0.5483,0.8989,0.2778,-156.7992,-74.1867,-325.4536
687,110.2295,43.9453,175.5981,-0.5591,0.9072,0.2671,-156.7992,-74.1867,-325.4536
688,110.0464,42.8467,177.124,-0.5732,0.918,0.2524,-150.9918,-75.3281,-322.3242
689,106.8726,40.5273,179.9927,-0.5923,0.9233,0.1934,-137.4413,-67.3387,-312.9361
690,104.6143,39.1235,180.7861,-0.5879,0.9263,0.1631,-143.2487,-63.9147,-297.2893
691,102.5391,35.4004,180.481,-0.5522,0.9473,0.0933,-143.2487,-63.9147,-297.2893
692,102.9663,33.3252,179.0771,-0.54,0.9653,0.0591,-121.9549,-65.0561,-287.9012
693,106.2012,31.25,176.2085,-0.4937,1.0225,-0.0029,-110.3402,-69.6214,-294.1599
694,108.4595,31.3721,175.9033,-0.4722,1.0435,-0.0229,-104.5328,-70.7627,-297.2893
695,110.6567,32.2876,175.415,-0.4341,1.0649,-0.0107,-104.5328,-70.7627,-297.2893
696,109.6191,31.4331,174.3164,-0.4189,1.0791,0.0146,-120.0191,-75.3281,-303.5481
697,107.8491,26.3672,168.8843,-0.3657,1.0908,0.0894,-102.597,-60.4907,-294.1599
698,107.8491,21.6675,164.917,-0.3325,1.0825,0.1001,-110.3402,-58.208,-287.9012
699,105.3467,11.1694,155.2734,-0.2837,1.0488,0.0596,-110.3402,-58.208,-287.9012
700,101.8677,5.4321,150.3906,-0.2642,1.0303,0.041,-98.7254,-67.3387,-306.6774
701,95.459,-7.0801,140.0146,-0.2686,0.9951,0.0327,-98.7254,-58.208,-287.9012
702,95.3979,-13.3057,133.9111,-0.2944,0.9688,0.0479,-90.9823,-58.208,-294.1599
703,99.6704,-21.4844,120.3003,-0.3398,0.8657,0.0615,-90.9823,-58.208,-294.1599
704,100.2808,-21.9727,111.7554,-0.3579,0.7896,0.0664,-96.7896,-61.632,-284.7719
705,87.5244,-16.4795,90.6372,-0.3774,0.7026,0.0635,-100.6612,-52.5014,-278.5132
706,75.9277,-11.3525,80.0781,-0.3853,0.6626,0.0732,-77.4317,-66.1974,-309.8068
707,63.2935,-6.7749,69.8853,-0.4038,0.6279,0.0249,-77.4317,-66.1974,-309.8068
708,39.0625,7.8125,49.6216,-0.4355,0.624,-0.0918,-67.7527,-49.0774,-287.9012
709,27.5879,15.8081,39.978,-0.4375,0.6338,-0.0859,-92.918,-68.48,-259.737
710,11.4746,26.5503,21.2402,-0.4062,0.6416,-0.0771,-90.9823,-53.6427,-281.6425
711,5.188,30.0903,11.7798,-0.3848,0.6743,-0.0679,-90.9823,-53.6427,-281.6425
712,-5.0659,34.2407,-5.249,-0.3154,0.7578,-0.0371,-92.918,-68.48,-272.2544
713,-9.1553,34.729,-12.8174,-0.2881,0.7891,-0.0244,-94.8538,-60.4907,-269.1251
714,-14.4043,32.8979,-25.6348,-0.2798,0.8276,-0.0103,-94.8538,-60.4907,-269.1251
715,-15.8691,30.8838,-31.1279,-0.3013,0.8252,0.0103,-83.2391,-58.208,-287.9012
716,-16.8457,28.5645,-36.1938,-0.333,0.8159,0.0278,-79.3675,-58.208,-269.1251
717,-18.7988,23.8037,-46.3257,-0.4106,0.7827,0.0703,-104.5328,-63.9147,-272.2544
718,-20.3857,21.9727,-51.1475,-0.4478,0.7808,0.0835,-104.5328,-63.9147,-272.2544
719,-24.7192,20.5688,-58.7158,-0.4854,0.8394,0.1221,-85.1749,-54.784,-297.2893
720,-27.6489,21.7285,-60.0586,-0.4609,0.916,0.1245,-90.9823,-62.7734,-281.6425
721,-33.8745,29.3579,-55.3589,-0.3042,1.082,0.0654,-94.8538,-65.0561,-281.6425
722,-36.9873,34.9121,-49.7437,-0.2124,1.1436,0.0088,-94.8538,-65.0561,-281.6425
723,-44.0674,45.2881,-34.4849,-0.0781,1.2324,-0.1475,-94.8538,-65.0561,-287.9012
724,-45.5933,49.3774,-26.6113,-0.0435,1.2559,-0.2534,-104.5328,-66.1974,-265.9957
725,-41.3208,55.0537,-14.4043,-0.0044,1.291,-0.4604,-94.8538,-58.208,-256.6076
726,-33.1421,56.5796,-10.7422,0.0083,1.2993,-0.5142,-94.8538,-58.208,-256.6076
727,-6.1646,56.7017,-11.7187,0.0186,1.3032,-0.4443,-100.6612,-63.9147,-284.7719
728,7.6294,54.3823,-16.0522,0.0137,1.2817,-0.3643,-90.9823,-67.3387,-300.4187
729,17.395,50.8423,-22.4609,-0.0005,1.229,-0.2891,-100.6612,-63.9147,-291.0306
730,21.1182,44.3726,-37.2925,-0.0522,1.1421,-0.1758,-100.6612,-63.9147,-291.0306
731,16.2964,42.1753,-43.7012,-0.0806,1.1074,-0.1221,-98.7254,-67.3387,-275.3838
732,2.5024,39.978,-53.772,-0.0957,1.0811,0.0107,-90.9823,-69.6214,-281.6425
733,-4.3945,39.917,-55.9692,-0.0615,1.0923,0.1011,-104.5328,-77.6107,-272.2544
734,-20.0806,36.6821,-53.833,0.1113,1.1089,0.1934,-104.5328,-77.6107,-272.2544
735,-28.3813,33.3862,-50.6592,0.1948,1.0967,0.1426,-106.4686,-67.3387,-269.1251
736,-35.2783,21.3623,-44.4946,0.272,1.1353,-0.0469,-94.8538,-71.9041,-300.4187
737,-31.4331,10.9863,-41.8701,0.2744,1.1626,-0.1416,-98.7254,-81.0347,-287.9012
738,-9.3994,-13.855,-40.6494,0.1802,1.2031,-0.2852,-98.7254,-81.0347,-287.9012
739,3.0518,-23.4985,-40.5273,0.0913,1.1621,-0.2642,-94.8538,-74.1867,-281.6425
740,15.2588,-32.2876,-37.9639,-0.1006,0.9565,-0.1421,-116.1476,-59.3494,-291.0306
741,11.9019,-31.311,-36.8042,-0.1865,0.8628,-0.104,-98.7254,-71.9041,-287.9012
742,-5.0659,-21.7285,-35.6445,-0.3374,0.7363,-0.1172,-98.7254,-71.9041,-287.9012
743,-13.7939,-16.1133,-35.8887,-0.3896,0.7227,-0.1445,-94.8538,-78.7521,-287.9012
744,-20.0806,-12.207,-36.5601,-0.4126,0.7368,-0.2026,-100.6612,-70.7627,-297.2893
745,-19.8975,-7.5073,-40.3442,-0.3599,0.8271,-0.3716,-110.3402,-69.6214,-306.6774
746,-14.3433,-4.7607,-41.3818,-0.2959,0.896,-0.3911,-110.3402,-69.6214,-306.6774
747,-2.6855,1.4038,-39.6729,-0.1816,0.9536,-0.2495,-110.3402,-76.4694,-275.3838
748,0.3052,3.54,-38.4521,-0.1582,0.9404,-0.1426,-106.4686,-65.0561,-275.3838
749,0.1221,4.0283,-36.9873,-0.1494,0.9023,-0.0225,-114.2118,-78.7521,-306.6774
750,-1.8311,3.2349,-36.7432,-0.1528,0.8989,-0.0015,-114.2118,-78.7521,-306.6774
751,-5.7983,1.8311,-36.3159,-0.1558,0.9097,-0.0073,-90.9823,-76.4694,-294.1599
752,-7.5073,1.0986,-36.1938,-0.1533,0.9302,-0.0347,-100.6612,-77.6107,-272.2544
753,-8.1177,-0.3052,-36.1938,-0.1543,0.9966,-0.0781,-120.0191,-77.6107,-297.2893
754,-6.897,-0.9766,-35.9497,-0.1616,1.0249,-0.0801,-120.0191,-77.6107,-297.2893
755,-3.0518,-2.3804,-34.9731,-0.1934,1.0347,-0.0815,-112.276,-84.4587,-303.5481
756,-1.9531,-2.0142,-34.3628,-0.2222,1.0127,-0.0913,-127.7623,-75.3281,-309.8068
757,-2.9297,2.5635,-32.959,-0.2798,0.9482,-0.1284,-114.2118,-74.1867,-300.4187
758,-4.4556,6.0425,-32.8369,-0.3022,0.9185,-0.146,-114.2118,-74.1867,-300.4187
759,-7.9346,12.5122,-34.1187,-0.3223,0.9072,-0.1875,-120.0191,-82.1761,-291.0306
760,-9.0332,14.9536,-35.0342,-0.3208,0.9263,-0.2114,-123.8907,-82.1761,-291.0306
761,-9.7046,17.0898,-35.8276,-0.3115,0.9561,-0.231,-125.8265,-87.8827,-300.4187
762,-9.6436,19.5923,-36.438,-0.2739,1.0059,-0.2627,-125.8265,-87.8827,-300.4187
763,-9.2773,20.0195,-35.9497,-0.252,1.022,-0.27,-120.0191,-84.4587,-303.5481
764,-7.5073,18.6768,-34.5459,-0.1997,1.0215,-0.2617,-127.7623,-79.8934,-303.5481
765,-6.4697,16.4185,-33.8745,-0.1782,1.0078,-0.2505,-121.9549,-81.0347,-300.4187
766,-4.8828,9.5215,-32.7759,-0.1587,1.0107,-0.2227,-121.9549,-81.0347,-300.4187
767,-4.5166,5.4932,-32.1045,-0.1553,1.0156,-0.2085,-125.8265,-78.7521,-281.6425
768,-4.2114,-2.5024,-30.3955,-0.1606,1.0161,-0.2046,-125.8265,-83.3174,-300.4187
769,-4.2725,-5.8594,-29.4189,-0.1724,1.0029,-0.2129,-133.5697,-78.7521,-306.6774
770,-4.6997,-11.4136,-27.6489,-0.2017,0.9731,-0.2075,-133.5697,-78.7521,-306.6774
771,-5.127,-13.7939,-27.2217,-0.2217,0.9707,-0.209,-123.8907,-82.1761,-297.2893
772,-6.2256,-17.0898,-26.6113,-0.2524,0.9624,-0.2153,-125.8265,-78.7521,-306.6774
773,-6.6528,-18.1274,-26.4282,-0.2642,0.957,-0.2261,-141.3129,-90.1654,-300.4187
774,-7.5684,-19.104,-25.5127,-0.2827,0.9512,-0.23,-141.3129,-90.1654,-300.4187
775,-7.9956,-19.3481,-24.9023,-0.291,0.9492,-0.2295,-121.9549,-83.3174,-300.4187
776,-8.9722,-19.5923,-24.231,-0.292,0.9443,-0.2148,-131.6339,-89.0241,-297.2893
777,-9.0942,-19.9585,-24.0479,-0.2891,0.9463,-0.2041,-133.5697,-83.3174,-300.4187
778,-8.5449,-21.1182,-23.4375,-0.2656,0.9463,-0.1699,-133.5697,-83.3174,-300.4187
779,-8.0566,-22.2168,-23.0103,-0.2476,0.9419,-0.1479,-131.6339,-75.3281,-297.2893
780,-6.7139,-25.6348,-21.9727,-0.228,0.9419,-0.1035,-127.7623,-86.7414,-309.8068
781,-6.1035,-27.5269,-21.3623,-0.2217,0.9351,-0.0864,-123.8907,-86.7414,-322.3242
782,-5.249,-31.25,-20.2026,-0.2285,0.9185,-0.0708,-123.8907,-86.7414,-322.3242
783,-5.0049,-32.7759,-19.5923,-0.2446,0.915,-0.0688,-125.8265,-83.3174,-281.6425
784,-4.3945,-34.2407,-18.4937,-0.2881,0.9067,-0.0879,-125.8265,-85.6001,-325.4536
785,-4.2114,-33.8745,-18.3105,-0.314,0.9048,-0.0986,-143.2487,-79.8934,-309.8068
786,-3.6011,-31.9824,-18.0054,-0.3628,0.9131,-0.1064,-145.1845,-76.4694,-287.9012
787,-3.2959,-30.3345,-17.8833,-0.3789,0.9141,-0.1064,-145.1845,-76.4694,-287.9012
788,-2.8076,-26.2451,-17.4561,-0.4043,0.9106,-0.105,-139.3771,-84.4587,-303.5481
789,-2.7466,-23.6206,-17.2119,-0.4121,0.9019,-0.1045,-131.6339,-82.1761,-328.5829
790,-3.1738,-18.4326,-16.9678,-0.4058,0.8867,-0.0757,-135.5055,-84.4587,-303.5481
791,-3.6011,-16.9067,-17.1509,-0.3965,0.8936,-0.0635,-135.5055,-84.4587,-303.5481
792,-3.7842,-15.5029,-17.0288,-0.3716,0.915,-0.0635,-143.2487,-73.0454,-309.8068
793,-3.54,-15.2588,-16.8457,-0.3633,0.9292,-0.0674,-125.8265,-81.0347,-331.7123
794,-2.8076,-14.8926,-15.686,-0.3604,0.9487,-0.0786,-131.6339,-77.6107,-322.3242
795,-2.5635,-14.7095,-14.9536,-0.3647,0.9478,-0.0864,-131.6339,-77.6107,-322.3242
796,-2.1973,-13.9771,-13.6719,-0.3706,0.9355,-0.0986,-139.3771,-89.0241,-328.5829
797,-2.1362,-13.3667,-13.3057,-0.3735,0.9248,-0.1089,-135.5055,-82.1761,-316.0655
798,-2.5635,-11.8408,-13.1836,-0.3667,0.9194,-0.1235,-147.1202,-84.4587,-303.5481
799,-2.9297,-11.2305,-13.3667,-0.354,0.9229,-0.1309,-147.1202,-84.4587,-303.5481
800,-3.2349,-10.1929,-13.6108,-0.3223,0.938,-0.1479,-145.1845,-78.7521,-294.1599
801,-3.2959,-9.7046,-13.5498,-0.3057,0.939,-0.1504,-135.5055,-79.8934,-309.8068
802,-3.54,-9.9487,-13.6719,-0.2656,0.9321,-0.1479,-143.2487,-70.7627,-322.3242
803,-3.54,-10.6812,-13.7939,-0.2495,0.9302,-0.1543,-143.2487,-70.7627,-322.3242
804,-3.2349,-12.3291,-13.9771,-0.23,0.9253,-0.1592,-125.8265,-81.0347,-319.1949
805,-3.2349,-13.1226,-14.0381,-0.2314,0.9312,-0.1562,-141.3129,-78.7521,-331.7123
806,-3.479,-14.6484,-14.0381,-0.2441,0.9473,-0.1499,-135.5055,-77.6107,-322.3242
807,-3.7231,-15.3198,-14.2212,-0.252,0.9541,-0.1445,-135.5055,-79.8934,-309.8068
808,-3.9673,-16.7236,-14.6484,-0.2642,0.9619,-0.1323,-135.5055,-79.8934,-309.8068
809,-4.0894,-17.0288,-14.8926,-0.272,0.9624,-0.126,-139.3771,-77.6107,-334.8416
810,-5.127,-17.2729,-15.1978,-0.2856,0.9561,-0.1196,-120.0191,-79.8934,-328.5829
811,-5.5542,-17.4561,-15.3809,-0.2866,0.9541,-0.1152,-145.1845,-83.3174,-344.2297
812,-6.1646,-18.9819,-16.1743,-0.2808,0.9585,-0.1133,-145.1845,-83.3174,-344.2297
813,-6.2256,-20.0195,-16.2354,-0.2803,0.9634,-0.1113,-149.056,-83.3174,-325.4536
814,-6.1646,-22.0337,-16.1743,-0.2886,0.9653,-0.1182,-149.056,-81.0347,-331.7123
815,-6.2256,-22.8882,-15.9302,-0.2993,0.9595,-0.127,-141.3129,-78.7521,-331.7123
816,-6.4087,-23.5596,-15.7471,-0.3154,0.9561,-0.1265,-141.3129,-78.7521,-331.7123
817,-6.4697,-23.8647,-15.8691,-0.3345,0.9409,-0.1226,-160.6708,-81.0347,-325.4536
818,-6.4697,-23.8037,-16.1133,-0.3345,0.9297,-0.1226,-147.1202,-73.0454,-347.3591
819,-6.5918,-22.9492,-16.7236,-0.3291,0.9126,-0.1128,-147.1202,-70.7627,-334.8416
820,-6.7749,-22.522,-16.8457,-0.3315,0.9072,-0.1108,-147.1202,-70.7627,-334.8416
821,-8.3008,-21.7285,-16.8457,-0.3569,0.917,-0.1074,-139.3771,-77.6107,-334.8416
822,-9.2163,-21.1182,-16.9067,-0.3716,0.9243,-0.1172,-141.3129,-76.4694,-344.2297
823,-9.9487,-19.3481,-17.2729,-0.3833,0.9312,-0.1353,-149.056,-76.4694,-337.971
824,-10.1929,-18.6768,-17.6392,-0.3726,0.9312,-0.1445,-149.056,-76.4694,-337.971
825,-10.6812,-18.3716,-18.1274,-0.3437,0.9316,-0.1387,-137.4413,-76.4694,-356.7472
826,-10.7422,-18.7988,-18.0054,-0.3296,0.9292,-0.1343,-156.7992,-74.1867,-337.971
827,-10.8032,-20.813,-17.8833,-0.314,0.9282,-0.1255,-147.1202,-77.6107,-334.8416
828,-10.376,-23.7427,-17.8833,-0.3032,0.9321,-0.1206,-141.3129,-67.3387,-337.971
829,-10.1318,-25.3906,-18.1274,-0.2979,0.9336,-0.1172,-141.3129,-67.3387,-337.971
830,-9.4604,-28.1372,-18.4326,-0.293,0.9263,-0.1113,-145.1845,-76.4694,-325.4536
831,-9.4604,-29.541,-18.4937,-0.2925,0.9214,-0.1045,-135.5055,-77.6107,-334.8416
832,-9.6436,-32.0435,-19.2871,-0.2891,0.9204,-0.1084,-147.1202,-75.3281,-341.1004
833,-9.7656,-32.8979,-19.7754,-0.2842,0.9243,-0.1064,-147.1202,-75.3281,-341.1004
834,-10.2539,-34.4238,-20.6909,-0.2764,0.9302,-0.0967,-164.5424,-78.7521,-312.9361
835,-10.5591,-34.8511,-21.0571,-0.2759,0.9263,-0.0986,-160.6708,-78.7521,-350.4885
836,-11.4746,-35.7666,-21.7896,-0.2827,0.916,-0.0874,-154.8634,-66.1974,-328.5829
837,-11.7798,-36.1938,-22.4609,-0.2852,0.9131,-0.083,-154.8634,-66.1974,-328.5829
838,-12.8784,-36.6211,-23.4375,-0.2905,0.9189,-0.0796,-129.6981,-67.3387,-337.971
839,-13.916,-36.7432,-23.8037,-0.2935,0.9185,-0.0776,-164.5424,-71.9041,-350.4885
840,-16.1743,-36.499,-24.7803,-0.2993,0.9155,-0.0859,-160.6708,-71.9041,-337.971
841,-17.334,-36.438,-25.6348,-0.2944,0.9175,-0.0889,-172.2856,-81.0347,-344.2297
842,-18.4937,-36.7432,-27.8931,-0.2588,0.9331,-0.0962,-172.2856,-81.0347,-344.2297
843,-18.6157,-37.0483,-28.8696,-0.2388,0.9399,-0.0933,-162.6066,-73.0454,-328.5829
844,-19.2871,-38.6963,-29.48,-0.2246,0.9482,-0.0825,-154.8634,-77.6107,-341.1004
845,-20.0195,-39.6118,-29.541,-0.2417,0.9531,-0.0825,-162.6066,-75.3281,-347.3591
846,-22.7051,-40.8325,-29.7241,-0.3018,0.9565,-0.0937,-162.6066,-75.3281,-347.3591
847,-24.1089,-40.8325,-30.0903,-0.3369,0.9629,-0.1079,-150.9918,-68.48,-372.394
848,-26.3672,-39.2456,-31.4941,-0.395,0.979,-0.127,-168.414,-69.6214,-331.7123
849,-27.0386,-37.7808,-32.5317,-0.4111,0.9897,-0.1196,-150.9918,-68.48,-328.5829
850,-28.0762,-34.5459,-35.0342,-0.3945,0.9976,-0.0869,-150.9918,-68.48,-328.5829
851,-28.4424,-33.2031,-36.438,-0.3643,0.9932,-0.064,-170.3498,-70.7627,-359.8765
852,-29.2969,-31.9214,-38.147,-0.2964,0.9717,-0.0371,-145.1845,-76.4694,-344.2297
853,-30.2124,-31.9824,-38.3911,-0.2803,0.9648,-0.0332,-166.4782,-66.1974,-378.6526
854,-33.02,-32.6538,-37.7808,-0.3022,0.9629,-0.0469,-164.5424,-71.9041,-356.7472
855,-34.9121,-32.7148,-37.5977,-0.3315,0.9722,-0.0562,-164.5424,-71.9041,-356.7472
856,-38.3911,-31.0059,-38.6353,-0.3989,1.0127,-0.0972,-174.2213,-59.3494,-341.1004
857,-40.1001,-29.2358,-39.6729,-0.4209,1.0366,-0.1177,-176.1571,-67.3387,-363.0059
858,-42.3584,-24.7192,-42.2363,-0.4312,1.0674,-0.1484,-180.0287,-74.1867,-363.0059
859,-43.0908,-22.3999,-43.5791,-0.4204,1.0762,-0.1562,-180.0287,-74.1867,-363.0059
860,-44.1895,-18.6157,-46.1426,-0.3667,1.084,-0.1406,-183.9003,-65.0561,-369.2646
861,-44.7998,-17.7002,-47.3022,-0.3315,1.085,-0.1279,-174.2213,-75.3281,-397.4288
862,-46.5698,-17.6392,-49.6216,-0.2627,1.0928,-0.1084,-181.9645,-70.7627,-391.1701
863,-47.4854,-18.4326,-50.9033,-0.2334,1.106,-0.0972,-181.9645,-70.7627,-391.1701
864,-47.9126,-22.0947,-53.4668,-0.1763,1.1191,-0.0737,-178.0929,-59.3494,-353.6178
865,-47.4243,-24.7803,-54.7485,-0.1504,1.1123,-0.0659,-191.6435,-67.3387,-375.5233
866,-46.6919,-30.7007,-56.5796,-0.1138,1.0894,-0.0669,-185.8361,-77.6107,-397.4288
867,-47.0581,-33.5693,-57.373,-0.1064,1.0791,-0.0703,-199.3866,-65.0561,-388.0407
868,-49.3164,-37.7197,-58.8989,-0.0947,1.0688,-0.0728,-199.3866,-65.0561,-388.0407
869,-50.8423,-39.1235,-59.9365,-0.0884,1.0669,-0.0767,-201.3224,-66.1974,-378.6526
870,-53.5278,-39.978,-62.7441,-0.0796,1.0684,-0.083,-193.5793,-63.9147,-372.394
871,-54.2603,-39.3677,-64.0259,-0.0786,1.0688,-0.0898,-197.4509,-63.9147,-372.394
872,-56.0913,-36.6821,-66.6504,-0.0796,1.0586,-0.0981,-197.4509,-63.9147,-372.394
873,-56.5796,-34.4849,-68.0542,-0.0864,1.0542,-0.1035,-201.3224,-57.0667,-391.1701
874,-56.9458,-29.3579,-70.1904,-0.1147,1.0283,-0.103,-216.8088,-68.48,-391.1701
875,-55.9082,-25.7568,-71.8994,-0.1836,1.0024,-0.0977,-218.7446,-67.3387,-369.2646
876,-54.9316,-24.5361,-72.2656,-0.2261,0.9888,-0.0977,-205.194,-61.632,-391.1701
877,-52.7954,-22.3389,-72.1436,-0.3027,0.9482,-0.0933,-205.194,-61.632,-391.1701
878,-51.5747,-21.2402,-71.6553,-0.3423,0.9302,-0.0786,-203.2582,-53.6427,-394.2995
879,-48.584,-19.5313,-69.519,-0.4224,0.9141,-0.0439,-224.552,-61.632,-416.205
880,-46.7529,-18.3105,-67.5049,-0.4609,0.9028,-0.0181,-228.4236,-63.9147,-416.205
881,-42.3584,-17.0288,-62.8662,-0.5156,0.8604,0.0542,-228.4236,-63.9147,-416.205
882,-39.978,-18.1274,-60.6079,-0.5444,0.8721,0.0952,-216.8088,-57.0667,-378.6526
883,-38.9404,-22.3999,-56.0303,-0.6719,0.8999,0.0815,-224.552,-61.632,-384.9114
884,-36.8042,-24.231,-54.1382,-0.7544,0.9268,0.0649,-226.4878,-60.4907,-388.0407
885,-23.1323,-23.3154,-48.0957,-0.853,0.916,0.104,-226.4878,-60.4907,-388.0407
886,-16.9067,-23.3154,-44.6777,-0.8843,0.8813,0.1309,-228.4236,-59.3494,-384.9114
887,-9.3384,-23.0103,-41.0767,-0.9409,0.8203,0.1685,-232.2951,-50.2187,-403.6875
888,-7.1411,-22.1558,-40.1611,-0.9639,0.7822,0.1772,-228.4236,-59.3494,-403.6875
889,-6.1035,-17.8223,-38.0249,-0.9854,0.7529,0.2114,-228.4236,-59.3494,-403.6875
890,-7.5073,-15.0757,-35.8887,-0.9878,0.77,0.2363,-220.6804,-66.1974,-391.1701
891,-10.1929,-11.7187,-33.02,-0.9873,0.769,0.2505,-230.3593,-53.6427,-394.2995
892,-14.6484,-5.8594,-26.7944,-1.0054,0.7227,0.2998,-230.3593,-58.208,-419.3344
893,-15.9302,-3.418,-24.1089,-1.0034,0.687,0.312,-230.3593,-58.208,-419.3344
894,-17.7002,0.5493,-19.4092,-0.96,0.6392,0.3408,-220.6804,-59.3494,-416.205
895,-19.2261,1.77,-16.9678,-0.9312,0.6211,0.3428,-236.1667,-63.9147,-397.4288
896,-22.8271,4.5166,-11.7798,-0.8677,0.6284,0.3442,-234.2309,-60.4907,-406.817
897,-24.4141,5.9814,-8.4839,-0.8257,0.6494,0.3105,-234.2309,-60.4907,-406.817
898,-28.1982,10.5591,0.9155,-0.7256,0.7261,0.23,-245.8457,-53.6427,-406.817
899,-28.4424,13.5498,7.5073,-0.6865,0.7588,0.1841,-240.0383,-68.48,-409.9463
900,-25.0854,21.5454,22.9492,-0.6436,0.7783,0.0786,-232.2951,-70.7627,-397.4288
901,-21.2402,26.4282,31.1279,-0.6406,0.771,0.0479,-232.2951,-70.7627,-397.4288
902,-8.667,37.6587,46.5698,-0.6816,0.729,-0.0112,-240.0383,-68.48,-422.4637
903,-0.9155,44.0063,52.9175,-0.7124,0.6978,-0.0103,-232.2951,-61.632,-409.9463
904,7.7515,50.2319,57.8003,-0.7412,0.6606,0.0054,-224.552,-66.1974,-416.205
905,24.292,61.9507,62.9883,-0.7837,0.6074,0.0815,-224.552,-66.1974,-416.205
906,30.5786,66.7114,64.5142,-0.7739,0.6025,0.1445,-241.9741,-67.3387,-419.3344
907,38.0859,72.3877,69.6411,-0.7222,0.6113,0.2559,-241.9741,-67.3387,-400.5582
908,39.6118,74.4019,73.1201,-0.6934,0.6157,0.2808,-238.1025,-71.9041,-419.3344
909,38.4521,77.0874,81.7871,-0.624,0.6216,0.3335,-238.1025,-71.9041,-419.3344
910,37.3535,77.4536,86.4868,-0.5884,0.6265,0.3506,-241.9741,-71.9041,-388.0407
911,36.8652,76.355,95.1538,-0.5156,0.6392,0.3647,-222.6162,-81.0347,-425.5931
912,37.4756,75.2563,98.8159,-0.4834,0.6406,0.3633,-214.873,-78.7521,-400.5582
913,38.4521,74.0967,102.1118,-0.4556,0.6465,0.354,-214.873,-78.7521,-400.5582
914,40.6494,72.2656,108.8867,-0.4175,0.6543,0.311,-216.8088,-84.4587,-409.9463
915,41.9922,71.4111,112.7319,-0.4102,0.6616,0.2881,-209.0656,-79.8934,-403.6875
916,45.8984,69.397,122.8638,-0.4165,0.6792,0.231,-209.0656,-79.8934,-403.6875
917,49.5605,67.8711,128.3569,-0.4204,0.6938,0.2173,-222.6162,-81.0347,-419.3344
918,58.8379,63.9648,139.4043,-0.4473,0.7559,0.1572,-195.5151,-85.6001,-413.0756
919,65.2466,62.561,144.2871,-0.459,0.7778,0.147,-212.9372,-91.3067,-409.9463
920,80.0781,59.3872,151.1841,-0.4727,0.8369,0.1602,-212.9372,-91.3067,-409.9463
921,87.0361,57.8613,153.9917,-0.4771,0.8579,0.1743,-216.8088,-86.7414,-409.9463
922,100.1587,56.3354,159.9731,-0.5088,0.8867,0.2197,-193.5793,-91.3067,-409.9463
923,105.0415,55.8472,163.8794,-0.519,0.8696,0.2593,-197.4509,-95.8721,-384.9114
924,110.5957,54.0771,169.9219,-0.5273,0.8262,0.3208,-197.4509,-95.8721,-384.9114
925,111.9385,53.1006,171.4478,-0.5327,0.8286,0.3428,-181.9645,-93.5894,-384.9114
926,113.7695,51.1475,171.814,-0.5498,0.8647,0.355,-183.9003,-90.1654,-388.0407
927,113.4033,50.1709,171.9971,-0.5566,0.8799,0.3398,-170.3498,-95.8721,-384.9114
928,111.8164,49.4385,172.1191,-0.5625,0.9004,0.3159,-170.3498,-95.8721,-384.9114
929,106.8726,48.3398,173.2788,-0.5571,0.9282,0.2568,-174.2213,-91.3067,-366.1352
930,104.0649,47.0581,173.5229,-0.5376,0.9316,0.231,-150.9918,-95.8721,-378.6526
931,99.3652,40.4053,172.4854,-0.4839,0.96,0.1655,-152.9276,-99.2961,-375.5233
932,98.5107,35.4614,171.5088,-0.4526,0.9717,0.1182,-152.9276,-99.2961,-375.5233
933,101.6235,25.5127,169.4336,-0.3618,1.0332,0.0127,-145.1845,-103.8614,-381.782
934,106.3843,20.9351,169.1284,-0.3267,1.0591,-0.0303,-129.6981,-97.0134,-394.2995
935,117.7368,15.1367,169.1895,-0.2959,1.1104,-0.0781,-125.8265,-99.2961,-394.2995
936,121.9482,13.3057,169.6167,-0.2959,1.1201,-0.0679,-125.8265,-99.2961,-394.2995
937,123.7793,7.7515,167.8467,-0.3057,1.1152,0.0054,-120.0191,-95.8721,-403.6875
938,123.8403,3.7231,165.1611,-0.3135,1.1167,0.0415,-116.1476,-93.5894,-384.9114
939,122.4365,-4.6997,158.2031,-0.3066,1.104,0.0649,-118.0834,-92.4481,-363.0059
940,119.5679,-8.1177,154.48,-0.2969,1.0752,0.0376,-118.0834,-92.4481,-363.0059
941,110.9619,-11.9629,145.813,-0.269,1.0034,-0.0137,-120.0191,-91.3067,-347.3591
942,105.896,-13.1226,140.564,-0.2598,0.981,-0.0381,-106.4686,-92.4481,-369.2646
943,96.6187,-14.6484,129.2114,-0.2695,0.9478,-0.1025,-90.9823,-92.4481,-363.0059
944,93.0786,-14.4043,123.5352,-0.2734,0.9307,-0.1162,-104.5328,-89.0241,-347.3591
945,86.1206,-12.5732,111.7554,-0.292,0.9023,-0.1279,-104.5328,-89.0241,-347.3591
946,81.9702,-10.0708,105.3467,-0.3022,0.8877,-0.1255,-85.1749,-91.3067,-359.8765
947,72.7539,-3.418,91.2476,-0.3145,0.8169,-0.0937,-69.6885,-86.7414,-384.9114
948,67.0166,0.4272,82.8247,-0.3052,0.7583,-0.0864,-61.9454,-84.4587,-347.3591
949,51.9409,8.9722,62.1948,-0.252,0.6509,-0.1055,-61.9454,-84.4587,-347.3591
950,42.4805,13.6108,50.9033,-0.2153,0.6201,-0.126,-69.6885,-86.7414,-347.3591
951,31.9824,17.7002,39.6118,-0.1738,0.6069,-0.1372,-67.7527,-78.7521,-337.971
952,12.6953,20.752,18.0054,-0.1187,0.6943,-0.145,-67.7527,-78.7521,-337.971
953,6.2256,19.3481,8.9111,-0.1113,0.7656,-0.1455,-85.1749,-91.3067,-341.1004
954,1.9531,13.1836,-5.9814,-0.126,0.8647,-0.1104,-73.5601,-84.4587,-328.5829
955,2.3804,9.4604,-11.9019,-0.1504,0.8711,-0.0864,-75.4959,-87.8827,-356.7472
956,1.8921,3.1738,-21.4233,-0.2217,0.8242,-0.042,-75.4959,-87.8827,-356.7472
957,0.061,1.709,-25.8179,-0.2612,0.7998,-0.0244,-67.7527,-83.3174,-356.7472
958,-2.3804,0.7935,-30.0293,-0.2979,0.7896,-0.0107,-87.1107,-81.0347,-344.2297
959,-7.8735,0.7324,-37.6587,-0.3667,0.7842,-0.002,-75.4959,-87.8827,-344.2297
960,-10.3149,1.5869,-41.0156,-0.3965,0.7861,-0.0005,-75.4959,-87.8827,-344.2297
961,-13.7329,5.0659,-47.7905,-0.4429,0.7949,0.0171,-83.2391,-83.3174,-337.971
962,-15.2588,7.7515,-50.7202,-0.4604,0.7998,0.0337,-75.4959,-85.6001,-369.2646
963,-19.043,15.0757,-56.0913,-0.4746,0.7944,0.0786,-85.1749,-93.5894,-353.6178
964,-21.9116,19.104,-58.2275,-0.4756,0.7881,0.1006,-85.1749,-93.5894,-353.6178
965,-29.2969,27.2217,-61.9507,-0.479,0.7612,0.1069,-81.3033,-93.5894,-366.1352
966,-33.5083,31.189,-63.7817,-0.4814,0.7583,0.1035,-87.1107,-94.7307,-337.971
967,-37.2925,35.2173,-65.4297,-0.4863,0.7817,0.0854,-87.1107,-94.7307,-337.971
968,-43.7622,44.0063,-66.9556,-0.4521,0.8862,0.0161,-83.2391,-99.2961,-369.2646
969,-46.3257,48.8892,-65.7959,-0.4087,0.9634,-0.0244,-89.0465,-98.1548,-366.1352
970,-46.9971,59.3872,-56.1523,-0.2803,1.0908,-0.0928,-102.597,-94.7307,-356.7472
971,-45.5933,64.7583,-49.0723,-0.1895,1.1436,-0.123,-102.597,-94.7307,-356.7472
972,-41.626,73.3643,-32.5317,0.021,1.2441,-0.1958,-100.6612,-95.8721,-359.8765
973,-39.6118,74.9512,-22.8882,0.1152,1.2959,-0.2446,-89.0465,-100.4374,-334.8416
974,-34.0576,68.9697,-3.2959,0.2788,1.3462,-0.377,-110.3402,-101.5788,-350.4885
975,-27.9541,62.1338,3.9673,0.3447,1.3408,-0.4497,-85.1749,-102.7201,-378.6526
976,-6.5308,44.1284,7.5073,0.4292,1.3403,-0.4487,-85.1749,-102.7201,-378.6526
977,7.4463,33.0811,3.3569,0.4546,1.3359,-0.3979,-90.9823,-103.8614,-356.7472
978,30.7007,10.3149,-14.8926,0.4429,1.2915,-0.3262,-100.6612,-109.5681,-341.1004
979,34.8511,0.7324,-26.2451,0.3647,1.2944,-0.27,-100.6612,-109.5681,-341.1004
980,34.1797,-6.6528,-35.2783,0.2544,1.3027,-0.1997,-94.8538,-99.2961,-344.2297
981,26.9775,-13.1226,-42.2363,0.1123,1.2759,-0.0298,-112.276,-105.0028,-347.3591
982,18.6768,-12.8784,-42.7246,0.0796,1.2148,0.0576,-98.7254,-101.5788,-350.4885
983,-6.2866,-11.3525,-42.2363,0.0552,1.0845,0.1172,-98.7254,-101.5788,-350.4885
984,-20.5688,-10.3149,-40.6494,0.0708,1.0186,0.0518,-100.6612,-100.4374,-353.6178
985,-41.3818,-11.4136,-36.1938,0.0864,1.0479,-0.1113,-100.6612,-100.4374,-366.1352
986,-42.8467,-16.1743,-35.0952,0.0791,1.0718,-0.2075,-114.2118,-103.8614,-350.4885
987,-23.9258,-30.9448,-39.4897,0.0024,1.1519,-0.4204,-114.2118,-103.8614,-350.4885
988,-9.5825,-36.0718,-41.5039,-0.0371,1.1533,-0.4526,-106.4686,-106.1441,-356.7472
989,7.2632,-36.1938,-39.6729,-0.0986,0.9766,-0.2939,-94.8538,-108.4268,-369.2646
990,6.1646,-33.5083,-37.4146,-0.146,0.877,-0.2148,-110.3402,-103.8614,-375.5233
991,-10.0708,-26.6724,-33.7524,-0.2686,0.7495,-0.1587,-121.9549,-108.4268,-344.2297
992,-18.3716,-23.6816,-33.4473,-0.3369,0.7495,-0.166,-121.9549,-108.4268,-344.2297
993,-25.0854,-22.2168,-36.0718,-0.3799,0.8027,-0.2222,-100.6612,-102.7201,-359.8765
994,-22.583,-23.5596,-38.3301,-0.3398,0.8477,-0.2793,-98.7254,-101.5788,-356.7472
995,-10.9253,-23.8647,-38.9404,-0.2021,0.9238,-0.3052,-110.3402,-110.7094,-350.4885
996,-4.8218,-22.0337,-36.9263,-0.1641,0.9287,-0.2441,-110.3402,-110.7094,-350.4885
997,1.2207,-18.0054,-32.3486,-0.1753,0.894,-0.0542,-104.5328,-105.0028,-391.1701
998,1.3428,-17.0898,-30.8838,-0.2109,0.8799,0.0117,-108.4044,-107.2854,-359.8765
999,-2.0142,-15.2588,-29.3579,-0.2871,0.8701,0.0791,-129.6981,-110.7094,-369.2646
1000,-4.6387,-13.2446,-29.48,-0.3149,0.8745,0.0835,-129.6981,-110.7094,-369.2646
1001,-9.9487,-7.5684,-30.7007,-0.3154,0.8882,0.043,-118.0834,-106.1441,-375.5233
1002,-12.0239,-4.8218,-31.8604,-0.2915,0.9189,0.0156,-118.0834,-115.2748,-375.5233
1003,-12.6343,-1.0986,-33.6304,-0.2349,1.0181,-0.022,-129.6981,-103.8614,-369.2646
1004,-10.9253,0.7935,-32.5317,-0.2217,1.0571,-0.064,-127.7623,-105.0028,-378.6526
1005,-10.2539,2.2583,-31.5552,-0.2349,1.0483,-0.0981,-127.7623,-105.0028,-378.6526
1006,-10.0098,7.0801,-29.9683,-0.2666,0.9775,-0.1709,-108.4044,-107.2854,-366.1352
1007,-10.437,9.8877,-30.0293,-0.2695,0.9468,-0.2026,-118.0834,-108.4268,-381.782
1008,-11.4136,13.4277,-31.4941,-0.2622,0.9575,-0.2466,-114.2118,-106.1441,-369.2646
1009,-11.9019,13.7939,-32.1045,-0.2471,0.9697,-0.2563,-114.2118,-106.1441,-369.2646
1010,-12.0239,12.8174,-32.7148,-0.2163,1.0122,-0.2822,-121.9549,-112.9921,-356.7472
1011,-12.085,11.4746,-32.5317,-0.1938,1.0269,-0.2915,-135.5055,-114.1334,-372.394
1012,-10.6201,7.019,-31.4941,-0.1523,1.042,-0.2979,-129.6981,-99.2961,-363.0059
1013,-9.5215,4.0894,-30.8228,-0.1309,1.0366,-0.2876,-129.6981,-99.2961,-363.0059
1014,-7.7515,-4.4556,-29.541,-0.0903,1.0186,-0.2671,-118.0834,-108.4268,-394.2995
1015,-7.0801,-9.6436,-29.2358,-0.0815,1.0161,-0.269,-125.8265,-112.9921,-369.2646
1016,-6.1646,-19.8364,-28.0762,-0.082,1.0327,-0.2632,-127.7623,-114.1334,-378.6526
1017,-6.0425,-24.292,-27.2217,-0.0884,1.0337,-0.248,-150.9918,-114.1334,-397.4288
1018,-6.6528,-31.7993,-25.3296,-0.1343,1.0054,-0.2432,-150.9918,-114.1334,-397.4288
1019,-7.7515,-34.4238,-24.5361,-0.1621,0.9839,-0.2451,-135.5055,-102.7201,-372.394
1020,-9.9487,-37.5977,-23.9868,-0.2041,0.9604,-0.2583,-133.5697,-124.4054,-381.782
1021,-10.376,-38.5742,-24.0479,-0.2124,0.9712,-0.2622,-147.1202,-105.0028,-378.6526
1022,-9.5825,-39.5508,-23.8647,-0.2104,0.9824,-0.2305,-147.1202,-105.0028,-378.6526
1023,-8.7891,-39.978,-23.7427,-0.21,0.9829,-0.1953,-145.1845,-110.7094,-394.2995
1024,-8.1177,-40.7715,-22.644,-0.2183,0.9458,-0.1475,-154.8634,-109.5681,-403.6875
1025,-8.728,-40.7715,-22.0337,-0.2324,0.9263,-0.1289,-125.8265,-108.4268,-388.0407
1026,-10.0708,-40.5884,-21.1182,-0.2666,0.9028,-0.1011,-131.6339,-109.5681,-409.9463
1027,-11.4136,-39.6729,-21.1792,-0.3032,0.9082,-0.0977,-131.6339,-109.5681,-409.9463
1028,-11.9629,-38.7573,-21.4233,-0.3174,0.9185,-0.1011,-137.4413,-103.8614,-363.0059
1029,-11.7187,-36.438,-21.7285,-0.3315,0.9326,-0.1035,-129.6981,-110.7094,-394.2995
1030,-11.1694,-34.8511,-21.6064,-0.3374,0.9346,-0.0996,-127.7623,-102.7201,-397.4288
1031,-10.9253,-30.7617,-20.6299,-0.353,0.9087,-0.0903,-147.1202,-105.0028,-397.4288
1032,-11.1084,-28.7476,-20.1416,-0.3589,0.8872,-0.0937,-147.1202,-105.0028,-397.4288
1033,-11.9019,-24.8413,-20.0806,-0.3687,0.874,-0.105,-129.6981,-108.4268,-394.2995
1034,-12.085,-22.8882,-20.5078,-0.3647,0.876,-0.1011,-143.2487,-105.0028,-403.6875
1035,-12.085,-19.5923,-21.1182,-0.356,0.8896,-0.0835,-147.1202,-111.8508,-391.1701
1036,-12.2681,-18.4326,-21.1792,-0.3477,0.8989,-0.0723,-147.1202,-111.8508,-391.1701
1037,-13.0005,-17.2119,-20.4468,-0.3398,0.9253,-0.0679,-150.9918,-107.2854,-409.9463
1038,-12.0239,-16.4185,-19.4092,-0.3486,0.9434,-0.063,-145.1845,-97.0134,-400.5582
1039,-11.2915,-16.4185,-18.6768,-0.3574,0.9434,-0.0645,-147.1202,-100.4374,-409.9463
1040,-10.0708,-16.3574,-17.5171,-0.3774,0.9248,-0.0713,-152.9276,-110.7094,-413.0756
1041,-9.8267,-16.1743,-17.0898,-0.3833,0.9146,-0.0737,-152.9276,-110.7094,-413.0756
1042,-10.1929,-15.1367,-16.4795,-0.3867,0.9077,-0.0718,-158.735,-102.7201,-409.9463
1043,-10.5591,-14.8315,-16.2964,-0.3872,0.9131,-0.0732,-147.1202,-102.7201,-391.1701
1044,-11.5967,-14.4653,-15.8081,-0.3838,0.9268,-0.0879,-156.7992,-94.7307,-419.3344
1045,-11.9629,-14.2212,-15.4419,-0.3794,0.9365,-0.0957,-139.3771,-116.4161,-409.9463
1046,-11.7187,-14.2822,-15.1978,-0.3457,0.9478,-0.1099,-139.3771,-116.4161,-409.9463
1047,-10.9863,-14.4653,-15.1367,-0.3252,0.9512,-0.1138,-164.5424,-117.5574,-425.5931
1048,-9.8877,-16.0522,-14.8315,-0.2856,0.9482,-0.1025,-160.6708,-103.8614,-400.5582
1049,-9.8877,-18.8599,-14.7095,-0.2559,0.9448,-0.1055,-145.1845,-101.5788,-406.817
1050,-10.0098,-20.1416,-14.7095,-0.2461,0.9424,-0.1118,-145.1845,-101.5788,-406.817
1051,-9.8877,-22.0947,-15.1978,-0.2314,0.9414,-0.1206,-154.8634,-105.0028,-403.6875
1052,-10.1929,-22.7051,-15.5029,-0.23,0.9414,-0.1362,-143.2487,-107.2854,-441.2399
1053,-11.1694,-22.7051,-15.8691,-0.2417,0.9404,-0.1562,-176.1571,-103.8614,-406.817
1054,-11.7187,-22.2168,-16.4185,-0.252,0.9341,-0.1636,-150.9918,-95.8721,-416.205
1055,-12.3901,-20.4468,-18.1885,-0.2588,0.9287,-0.1587,-150.9918,-95.8721,-416.205
1056,-12.9395,-19.4092,-19.2871,-0.252,0.9238,-0.1602,-158.735,-105.0028,-416.205
1057,-14.3433,-18.0054,-21.4844,-0.2319,0.9351,-0.1616,-154.8634,-95.8721,-422.4637
1058,-15.0146,-17.395,-22.2168,-0.2251,0.9399,-0.166,-145.1845,-101.5788,-394.2995
1059,-15.564,-16.4795,-22.8882,-0.2383,0.9512,-0.1621,-154.8634,-107.2854,-428.7225
1060,-15.686,-16.1133,-22.8882,-0.2549,0.9585,-0.1523,-154.8634,-107.2854,-428.7225
1061,-15.686,-15.3198,-23.3765,-0.2905,0.9697,-0.1216,-166.4782,-100.4374,-422.4637
1062,-15.625,-14.4043,-24.0479,-0.3022,0.9668,-0.0791,-150.9918,-105.0028,-434.9812
1063,-15.564,-14.0991,-24.4751,-0.3022,0.9561,-0.0576,-162.6066,-111.8508,-434.9812
1064,-16.3574,-14.2822,-25.1465,-0.3032,0.936,-0.0229,-162.6066,-111.8508,-434.9812
1065,-16.9067,-14.9536,-25.5127,-0.3022,0.9385,-0.0117,-160.6708,-101.5788,-400.5582
1066,-18.2495,-16.6016,-26.001,-0.3042,0.9453,-0.0083,-158.735,-105.0028,-434.9812
1067,-18.8599,-17.5171,-26.1841,-0.3062,0.9517,-0.0098,-160.6708,-97.0134,-431.8518
1068,-19.7144,-18.7988,-26.062,-0.3179,0.9575,-0.0205,-156.7992,-101.5788,-413.0756
1069,-19.9585,-19.043,-26.062,-0.3242,0.957,-0.0249,-156.7992,-101.5788,-413.0756
1070,-20.1416,-19.5923,-26.5503,-0.3174,0.9526,-0.0122,-158.735,-95.8721,-441.2399
1071,-20.1416,-19.9585,-26.9165,-0.3022,0.9438,0.0015,-172.2856,-106.1441,-438.1105
1072,-20.2637,-21.7285,-28.3813,-0.2588,0.9229,0.0068,-160.6708,-101.5788,-400.5582
1073,-21.9116,-24.7803,-29.8462,-0.2334,0.9189,-0.0225,-164.5424,-101.5788,-431.8518
1074,-23.0103,-26.062,-30.1514,-0.2275,0.9209,-0.0376,-164.5424,-101.5788,-431.8518
1075,-24.5361,-27.4658,-31.1279,-0.2271,0.9238,-0.0737,-162.6066,-98.1548,-422.4637
1076,-24.9634,-27.5269,-31.6772,-0.2275,0.9229,-0.0854,-178.0929,-102.7201,-453.7574
1077,-25.5737,-27.4048,-33.3252,-0.23,0.915,-0.0981,-178.0929,-93.5894,-416.205
1078,-26.2451,-27.3438,-34.4238,-0.2368,0.9146,-0.1035,-178.0929,-93.5894,-416.205
1079,-28.5034,-26.7334,-36.7432,-0.2495,0.916,-0.1284,-174.2213,-98.1548,-447.4986
1080,-29.6021,-26.3062,-37.9028,-0.2554,0.9277,-0.1348,-178.0929,-100.4374,-434.9812
1081,-30.9448,-25.3296,-40.1001,-0.2588,0.9546,-0.1328,-191.6435,-90.1654,-456.8867
1082,-31.4331,-24.7803,-41.0767,-0.2607,0.9673,-0.1279,-187.7719,-106.1441,-425.5931
1083,-33.7524,-23.5596,-42.4194,-0.2905,0.9839,-0.1523,-187.7719,-106.1441,-425.5931
1084,-35.6445,-22.2168,-42.6636,-0.3164,0.9893,-0.1729,-180.0287,-97.0134,-450.628
1085,-39.7949,-17.2729,-43.0298,-0.3828,1.0078,-0.1909,-181.9645,-102.7201,-472.5335
1086,-42.6636,-9.3384,-45.7153,-0.4131,1.0288,-0.1562,-176.1571,-97.0134,-438.1105
1087,-43.5791,-5.249,-48.645,-0.4038,1.041,-0.125,-176.1571,-97.0134,-438.1105
1088,-45.7153,0.6714,-55.7861,-0.3154,1.0801,-0.0806,-199.3866,-101.5788,-438.1105
1089,-47.0581,2.1973,-59.021,-0.2319,1.0972,-0.0747,-193.5793,-98.1548,-460.0161
1090,-50.2319,1.5259,-61.8896,-0.0933,1.1187,-0.1138,-203.2582,-99.2961,-481.9216
1091,-52.063,-0.2441,-62.7441,-0.0469,1.1143,-0.1387,-211.0014,-97.0134,-431.8518
1092,-51.3916,-7.5684,-65.7959,-0.022,1.1113,-0.1035,-211.0014,-97.0134,-431.8518
1093,-51.8188,-13.1836,-67.3828,-0.0361,1.1372,-0.1099,-201.3224,-93.5894,-472.5335
1094,-55.2368,-20.752,-68.7866,-0.104,1.2236,-0.1626,-211.0014,-99.2961,-438.1105
1095,-57.251,-22.0337,-69.0918,-0.1362,1.2563,-0.1636,-216.8088,-98.1548,-447.4986
1096,-60.3638,-23.8647,-70.6177,-0.1855,1.3115,-0.1621,-216.8088,-98.1548,-447.4986
1097,-61.4624,-23.6816,-71.6553,-0.1973,1.3281,-0.1611,-222.6162,-97.0134,-456.8867
1098,-61.8896,-21.0571,-74.646,-0.188,1.335,-0.1387,-222.6162,-92.4481,-456.8867
1099,-61.5234,-19.4702,-76.1108,-0.1714,1.3135,-0.1221,-222.6162,-97.0134,-456.8867
1100,-60.3638,-16.2354,-78.0029,-0.1392,1.2153,-0.1006,-228.4236,-98.1548,-441.2399
1101,-59.6924,-15.0146,-78.6133,-0.1333,1.1626,-0.0898,-228.4236,-98.1548,-441.2399
1102,-58.5938,-13.6719,-77.9419,-0.1538,1.063,-0.0869,-226.4878,-97.0134,-444.3693
1103,-58.0444,-12.9395,-76.8433,-0.1768,1.0195,-0.0952,-230.3593,-97.0134,-469.4041
1104,-57.6172,-11.3525,-73.5474,-0.2471,0.9556,-0.0967,-265.2036,-97.0134,-463.1454
1105,-57.0679,-10.8643,-71.0449,-0.2964,0.9292,-0.0937,-265.2036,-97.0134,-463.1454
1106,-54.2603,-10.376,-64.6362,-0.4087,0.8887,-0.0894,-259.3962,-95.8721,-447.4986
1107,-52.3071,-10.3149,-61.1572,-0.4707,0.8691,-0.0908,-238.1025,-103.8614,-463.1454
1108,-46.4478,-10.5591,-54.3213,-0.6094,0.8828,-0.0366,-247.7815,-98.1548,-447.4986
1109,-34.3628,-11.7187,-43.8232,-0.7334,0.9072,0.0684,-247.7815,-102.7201,-453.7574
1110,-25.6958,-11.8408,-38.8184,-0.7754,0.8745,0.0986,-247.7815,-102.7201,-453.7574
1111,-10.1929,-9.4604,-35.0342,-0.8359,0.791,0.167,-259.3962,-102.7201,-447.4986
1112,-5.4321,-8.3618,-34.8511,-0.8638,0.752,0.2104,-261.332,-101.5788,-456.8867
1113,-1.9531,-7.8735,-36.5601,-0.8887,0.6807,0.2788,-241.9741,-101.5788,-475.6629
1114,-0.061,-7.6904,-37.5977,-0.8862,0.6455,0.3037,-241.9741,-101.5788,-475.6629
1115,0.9155,-9.1553,-38.3911,-0.8872,0.605,0.3667,-255.5246,-107.2854,-485.0509
1116,-1.4648,-10.7422,-38.0249,-0.8984,0.6157,0.3833,-265.2036,-99.2961,-481.9216
1117,-9.2163,-12.207,-36.499,-0.9033,0.6084,0.4233,-249.7173,-101.5788,-475.6629
1118,-12.5732,-12.6343,-35.4614,-0.8965,0.5991,0.4365,-249.7173,-101.5788,-475.6629
1119,-19.2871,-13.4888,-32.4707,-0.8506,0.5869,0.4707,-249.7173,-101.5788,-456.8867
1120,-22.7051,-14.5874,-29.9072,-0.8184,0.5923,0.4766,-257.4604,-108.4268,-500.6978
1121,-29.6631,-17.0898,-21.7285,-0.7236,0.6558,0.4043,-261.332,-106.1441,-469.4041
1122,-33.7524,-16.8457,-15.625,-0.6675,0.6899,0.3472,-253.5889,-97.0134,-469.4041
1123,-39.7339,-13.7329,-1.5869,-0.5688,0.7358,0.2178,-253.5889,-97.0134,-469.4041
1124,-41.0767,-11.1084,5.9204,-0.5439,0.751,0.146,-253.5889,-106.1441,-481.9216
1125,-38.7573,-3.8452,22.583,-0.5386,0.7715,0.002,-263.2678,-105.0028,-491.3097
1126,-33.6914,0.7935,30.9448,-0.5679,0.7725,-0.0732,-271.011,-98.1548,-466.2748
1127,-14.4043,12.0239,44.9219,-0.6919,0.7822,-0.1694,-271.011,-98.1548,-466.2748
1128,-0.6714,18.2495,50.4761,-0.7485,0.7739,-0.1777,-269.0752,-106.1441,-456.8867
1129,28.6255,28.9917,57.9834,-0.8145,0.7651,-0.0884,-259.3962,-102.7201,-472.5335
1130,41.1377,33.3862,60.6689,-0.8052,0.7402,-0.0078,-253.5889,-115.2748,-463.1454
1131,57.8003,38.9404,64.5142,-0.7324,0.688,0.1616,-253.5889,-115.2748,-463.1454
1132,61.5234,39.978,66.5283,-0.6826,0.6719,0.2192,-249.7173,-108.4268,-456.8867
1133,61.8896,40.7715,72.7539,-0.582,0.644,0.2856,-228.4236,-125.5468,-491.3097
1134,59.6924,40.8325,76.7212,-0.5347,0.6289,0.3086,-249.7173,-128.9708,-475.6629
1135,53.9551,39.6118,85.2661,-0.4756,0.6191,0.3223,-249.7173,-128.9708,-475.6629
1136,51.5137,38.208,89.5996,-0.4604,0.6309,0.3071,-224.552,-114.1334,-453.7574
1137,49.9268,35.2783,97.5952,-0.4541,0.6777,0.252,-232.2951,-116.4161,-460.0161
1138,50.9644,34.1187,101.4404,-0.4551,0.7051,0.2129,-224.552,-120.9814,-478.7922
1139,57.6172,33.8135,108.6426,-0.4614,0.7705,0.1382,-224.552,-120.9814,-478.7922
1140,62.7441,34.4849,111.9995,-0.4653,0.792,0.1162,-224.552,-125.5468,-472.5335
1141,68.7256,35.8276,115.1123,-0.4712,0.8115,0.0972,-205.194,-123.2641,-478.7922
1142,80.0781,39.1235,121.2769,-0.4917,0.8413,0.0918,-203.2582,-128.9708,-450.628
1143,84.0454,40.3442,124.5728,-0.5039,0.8438,0.0952,-203.2582,-126.6881,-463.1454
1144,91.1865,42.3584,130.3711,-0.5415,0.8613,0.1157,-203.2582,-126.6881,-463.1454
1145,94.9097,43.5181,132.7515,-0.5615,0.8735,0.1382,-185.8361,-139.2428,-441.2399
1146,102.417,44.9829,137.085,-0.5977,0.8735,0.1875,-176.1571,-133.5361,-450.628
1147,105.2856,45.7153,138.9771,-0.603,0.8657,0.2061,-166.4782,-136.9601,-453.7574
1148,107.8491,47.6074,140.9912,-0.5957,0.8652,0.2397,-166.4782,-136.9601,-453.7574
1149,106.6895,49.8657,141.7236,-0.5918,0.8911,0.2534,-156.7992,-119.8401,-444.3693
1150,104.9805,50.4761,142.5781,-0.5835,0.8965,0.2583,-154.8634,-132.3948,-428.7225
1151,99.9756,48.5229,144.8364,-0.5464,0.8691,0.2388,-143.2487,-132.3948,-434.9812
1152,96.6187,45.2881,145.3857,-0.5161,0.8599,0.2158,-143.2487,-132.3948,-434.9812
1153,90.4541,36.499,144.7754,-0.4492,0.8862,0.1338,-141.3129,-122.1228,-413.0756
1154,88.9893,31.8604,143.6768,-0.4155,0.9146,0.0776,-118.0834,-138.1015,-406.817
1155,89.2334,24.9634,141.7847,-0.3784,0.9736,-0.0347,-118.0834,-135.8188,-413.0756
1156,90.6372,23.1934,141.3574,-0.3691,0.9932,-0.0688,-118.0834,-135.8188,-413.0756
1157,93.2007,21.3623,140.8691,-0.374,1.0215,-0.0835,-118.0834,-131.2534,-419.3344
1158,94.1772,20.874,140.3198,-0.3882,1.0303,-0.0698,-89.0465,-141.5255,-378.6526
1159,95.8252,18.9209,137.6343,-0.4092,1.0269,-0.0161,-89.0465,-134.6774,-403.6875
1160,95.7642,17.5781,135.1318,-0.4058,1.0259,-0.0005,-92.918,-136.9601,-422.4637
1161,94.7266,15.625,130.249,-0.3867,1.0366,0.0054,-92.918,-136.9601,-422.4637
1162,93.3228,15.625,128.1128,-0.3706,1.0234,0.001,-75.4959,-133.5361,-381.782
1163,90.5151,15.8081,125.5493,-0.3457,1.0117,0.0098,-73.5601,-136.9601,-359.8765
1164,83.8013,14.3433,120.3613,-0.3022,1.0039,0.0088,-65.8169,-120.9814,-378.6526
1165,81.1157,12.3901,117.8589,-0.2842,1.0059,0.0005,-65.8169,-120.9814,-378.6526
1166,78.0029,7.2632,112.1216,-0.2534,1.0176,0.0,-67.7527,-133.5361,-388.0407
1167,77.5146,4.3945,109.0698,-0.248,1.0229,-0.0068,-56.138,-128.9708,-369.2646
1168,77.6367,-0.5493,102.7832,-0.2422,1.0093,-0.0132,-60.0096,-122.1228,-363.0059
1169,77.7588,-2.6855,99.4873,-0.2422,0.9849,-0.0107,-60.0096,-122.1228,-363.0059
1170,76.5381,-6.7749,91.98,-0.2578,0.9419,-0.0205,-48.3948,-124.4054,-350.4885
1171,75.2563,-8.3618,87.8296,-0.2725,0.9243,-0.019,-46.459,-123.2641,-341.1004
1172,72.6318,-9.5215,79.4678,-0.3018,0.9014,-0.0098,-23.2295,-114.1334,-334.8416
1173,71.228,-9.1553,75.4395,-0.3105,0.8789,-0.0039,-23.2295,-114.1334,-334.8416
1174,66.3452,-6.6528,66.9556,-0.3379,0.8242,-0.0068,-32.9085,-124.4054,-331.7123
1175,62.3779,-4.6387,62.1948,-0.3662,0.7983,-0.0215,-27.1011,-118.6988,-309.8068
1176,53.1006,0.6714,51.3306,-0.3755,0.7808,-0.043,-30.9727,-116.4161,-309.8068
1177,49.1943,3.418,45.8984,-0.3618,0.7837,-0.0488,-30.9727,-116.4161,-309.8068
1178,42.1143,8.3618,35.5835,-0.314,0.8159,-0.0557,-13.5505,-119.8401,-331.7123
1179,39.2456,10.376,30.7007,-0.2871,0.8169,-0.0596,-17.4221,-106.1441,-306.6774
1180,34.2407,13.5498,21.6064,-0.251,0.7744,-0.0796,-23.2295,-114.1334,-316.0655
1181,31.0669,15.1978,17.0288,-0.2334,0.752,-0.0752,-23.2295,-114.1334,-316.0655
1182,23.3154,18.3716,7.4463,-0.2197,0.7319,-0.0566,-25.1653,-115.2748,-300.4187
1183,19.165,20.0806,2.6245,-0.2104,0.7314,-0.04,-9.679,-119.8401,-306.6774
1184,14.7705,21.5454,-2.1362,-0.2007,0.7329,-0.0195,-11.6147,-120.9814,-303.5481
1185,6.0425,23.6206,-12.0239,-0.1875,0.749,-0.001,-11.6147,-120.9814,-303.5481
1186,2.1362,24.6582,-16.8457,-0.1963,0.7515,0.0,-30.9727,-114.1334,-297.2893
1187,-5.6763,27.5879,-25.8789,-0.2466,0.7266,0.0005,-40.6516,-119.8401,-325.4536
1188,-9.8877,29.2358,-30.3345,-0.2729,0.7144,0.0059,-21.2937,-119.8401,-325.4536
1189,-18.0664,32.0435,-39.0015,-0.3271,0.7217,0.0181,-21.2937,-119.8401,-325.4536
1190,-22.3389,33.6304,-43.1519,-0.3452,0.7402,0.0073,-23.2295,-116.4161,-328.5829
1191,-31.0059,37.1704,-50.6592,-0.375,0.8408,-0.0239,-34.8443,-130.1121,-303.5481
1192,-32.8369,39.7949,-51.8188,-0.3521,0.8667,-0.0176,-44.5232,-115.2748,-312.9361
1193,-33.8745,44.6167,-51.5137,-0.2314,0.9521,0.0186,-44.5232,-115.2748,-312.9361
1194,-34.6069,46.9971,-49.9878,-0.1514,1.022,0.0,-32.9085,-124.4054,-287.9012
1195,-38.3911,52.124,-42.4194,-0.0024,1.1431,-0.1133,-21.2937,-119.8401,-281.6425
1196,-41.5649,54.8706,-36.8652,0.0469,1.1753,-0.2017,-34.8443,-118.6988,-297.2893
1197,-45.7764,58.2886,-25.3906,0.1431,1.2686,-0.3472,-34.8443,-118.6988,-297.2893
1198,-43.6401,58.0444,-19.4702,0.1978,1.3198,-0.3965,-32.9085,-122.1228,-294.1599
1199,-30.5176,55.603,-12.207,0.2993,1.3779,-0.502,-38.7158,-123.2641,-309.8068
1200,-22.4609,54.1992,-13.4277,0.3164,1.3936,-0.5439,-23.2295,-130.1121,-309.8068
1201,-7.3242,50.9644,-23.9258,0.2661,1.3613,-0.6304,-23.2295,-130.1121,-309.8068
1202,-1.0376,49.4995,-31.3721,0.1748,1.354,-0.5918,-17.4221,-128.9708,-306.6774
1203,10.498,46.875,-43.2739,-0.0635,1.2627,-0.376,-23.2295,-141.5255,-303.5481
1204,13.4277,47.1191,-48.0957,-0.1416,1.1943,-0.2544,-34.8443,-136.9601,-278.5132
1205,6.2866,50.7813,-54.9316,-0.1616,1.083,0.0103,-42.5874,-132.3948,-284.7719
1206,-2.9907,52.1851,-56.1523,-0.106,1.0488,0.1343,-42.5874,-132.3948,-284.7719
1207,-25.4517,47.9736,-54.5654,0.125,1.021,0.293,-40.6516,-140.3841,-281.6425
1208,-34.668,40.5884,-53.4058,0.23,1.0454,0.2617,-46.459,-139.2428,-272.2544
1209,-42.3584,17.1509,-50.7813,0.2769,1.1982,0.0229,-42.5874,-136.9601,-297.2893
1210,-37.6587,4.0283,-49.0112,0.2314,1.2568,-0.1191,-42.5874,-136.9601,-297.2893
1211,-15.3809,-17.395,-44.5557,0.062,1.2231,-0.2607,-36.7801,-131.2534,-306.6774
1212,-4.2114,-24.1089,-41.5039,-0.0356,1.1245,-0.2319,-42.5874,-139.2428,-303.5481
1213,1.4038,-26.7334,-35.5835,-0.2402,0.9155,-0.1646,-44.5232,-140.3841,-287.9012
1214,-2.6245,-22.7051,-33.2642,-0.3501,0.8218,-0.1606,-44.5232,-140.3841,-287.9012
1215,-14.4653,-8.606,-32.3486,-0.5308,0.6812,-0.1719,-67.7527,-140.3841,-300.4187
1216,-19.7754,-1.4648,-34.2407,-0.5723,0.6479,-0.1758,-52.2664,-142.6668,-287.9012
1217,-24.353,8.3008,-41.687,-0.502,0.6909,-0.2437,-63.8812,-144.9495,-300.4187
1218,-23.3154,12.3901,-44.8608,-0.4009,0.7808,-0.2783,-63.8812,-144.9495,-300.4187
1219,-16.0522,19.104,-45.3491,-0.1587,0.9292,-0.168,-56.138,-144.9495,-306.6774
1220,-11.3525,19.3481,-44.0063,-0.064,0.959,-0.0542,-52.2664,-147.2321,-300.4187
1221,-5.6152,12.6343,-40.2832,0.0273,0.9575,0.0762,-60.0096,-149.5148,-331.7123
1222,-5.6763,8.5449,-37.9028,0.019,0.9326,0.0898,-60.0096,-149.5148,-331.7123
1223,-10.7422,3.0518,-33.6304,-0.1001,0.895,0.0522,-63.8812,-142.6668,-287.9012
1224,-12.9395,1.8311,-32.5317,-0.1797,0.9053,0.0063,-69.6885,-139.2428,-309.8068
1225,-13.6719,3.1738,-32.1045,-0.3091,0.9316,-0.1147,-61.9454,-141.5255,-297.2893
1226,-12.3291,5.9204,-32.7148,-0.3496,0.9424,-0.1533,-61.9454,-141.5255,-297.2893
1227,-9.9487,13.0615,-34.4238,-0.375,0.9541,-0.1753,-63.8812,-144.9495,-300.4187
1228,-9.8267,16.5405,-35.2783,-0.3608,0.958,-0.1777,-52.2664,-149.5148,-300.4187
1229,-12.3291,21.8506,-36.1938,-0.3003,0.9805,-0.2031,-69.6885,-148.3735,-291.0306
1230,-13.6719,23.3765,-36.1938,-0.2603,1.001,-0.2231,-83.2391,-158.6455,-287.9012
1231,-13.7939,23.8037,-35.8276,-0.1865,1.042,-0.2524,-83.2391,-158.6455,-287.9012
1232,-12.8174,22.7661,-35.4614,-0.1543,1.0513,-0.252,-71.6243,-144.9495,-294.1599
1233,-10.6812,18.2495,-34.8511,-0.0942,1.043,-0.2471,-73.5601,-157.5042,-297.2893
1234,-10.0098,14.6484,-34.4238,-0.0742,1.0347,-0.2383,-75.4959,-158.6455,-281.6425
1235,-10.3149,6.3477,-33.2031,-0.0649,1.042,-0.2485,-75.4959,-158.6455,-281.6425
1236,-10.7422,2.4414,-32.2876,-0.0801,1.0503,-0.2593,-61.9454,-152.9388,-309.8068
1237,-11.0474,-3.1738,-30.8228,-0.1372,1.0396,-0.2856,-75.4959,-144.9495,-306.6774
1238,-11.4136,-5.0049,-30.2734,-0.1699,1.0181,-0.2998,-67.7527,-151.7975,-325.4536
1239,-11.8408,-6.8359,-30.2124,-0.2065,0.9604,-0.2944,-67.7527,-151.7975,-325.4536
1240,-12.6343,-7.8125,-30.3955,-0.2144,0.9473,-0.3008,-79.3675,-142.6668,-300.4187
1241,-14.3433,-9.0332,-30.4565,-0.2192,0.9487,-0.2764,-79.3675,-154.0801,-331.7123
1242,-15.0146,-9.6436,-30.1514,-0.2173,0.9609,-0.2583,-92.918,-148.3735,-316.0655
1243,-15.4419,-11.1694,-29.541,-0.2168,0.9829,-0.2231,-77.4317,-152.9388,-297.2893
1244,-15.3809,-12.3901,-28.9917,-0.2148,0.9814,-0.2065,-77.4317,-152.9388,-297.2893
1245,-14.9536,-15.0757,-27.71,-0.2144,0.9731,-0.1611,-85.1749,-162.0695,-322.3242
1246,-14.3433,-16.5405,-26.9165,-0.2192,0.9619,-0.1401,-81.3033,-162.0695,-278.5132
1247,-13.4277,-19.043,-25.0244,-0.2437,0.9238,-0.1128,-85.1749,-141.5255,-316.0655
1248,-13.2446,-19.8975,-24.1699,-0.2651,0.9048,-0.105,-85.1749,-141.5255,-316.0655
1249,-13.7939,-20.0195,-22.522,-0.3242,0.8809,-0.1021,-79.3675,-167.7762,-325.4536
1250,-14.1602,-19.4092,-21.8506,-0.3569,0.8804,-0.0996,-94.8538,-151.7975,-356.7472
1251,-14.1602,-16.9678,-21.1792,-0.3999,0.897,-0.0815,-85.1749,-150.6561,-334.8416
1252,-13.855,-15.625,-21.3013,-0.4019,0.9009,-0.0747,-98.7254,-151.7975,-331.7123
1253,-12.3901,-13.1836,-21.7896,-0.373,0.9126,-0.0508,-98.7254,-151.7975,-331.7123
1254,-11.6577,-12.146,-21.7896,-0.3477,0.9131,-0.0371,-102.597,-151.7975,-344.2297
1255,-10.5591,-11.2305,-20.874,-0.3154,0.9058,-0.0112,-106.4686,-149.5148,-294.1599
1256,-10.1318,-10.8032,-19.165,-0.3311,0.9106,-0.0117,-83.2391,-151.7975,-325.4536
1257,-10.0098,-10.3149,-18.2495,-0.3545,0.9189,-0.0093,-83.2391,-151.7975,-325.4536
1258,-9.8877,-8.9111,-16.9067,-0.394,0.9238,-0.0215,-96.7896,-148.3735,-284.7719
1259,-9.6436,-8.2397,-16.8457,-0.4028,0.9287,-0.0264,-92.918,-162.0695,-316.0655
1260,-8.3618,-7.0801,-16.6626,-0.3931,0.9341,-0.042,-89.0465,-152.9388,-322.3242
1261,-7.9346,-6.5918,-16.4795,-0.3804,0.9365,-0.0488,-89.0465,-152.9388,-322.3242
1262,-7.5684,-5.9814,-15.8691,-0.3428,0.9365,-0.0513,-94.8538,-149.5148,-331.7123
1263,-7.6904,-6.1646,-15.4419,-0.3242,0.9277,-0.0601,-87.1107,-156.3628,-300.4187
1264,-8.3618,-7.1411,-14.5874,-0.3076,0.939,-0.0942,-102.597,-160.9281,-325.4536
1265,-8.1177,-7.6904,-13.9771,-0.3071,0.9478,-0.1084,-102.597,-154.0801,-319.1949
1266,-7.3242,-9.0332,-13.3057,-0.3125,0.9614,-0.1279,-102.597,-154.0801,-319.1949
1267,-7.019,-9.3994,-13.3057,-0.3052,0.9609,-0.1274,-108.4044,-146.0908,-334.8416
1268,-7.019,-11.0474,-13.3057,-0.271,0.9502,-0.1309,-106.4686,-144.9495,-319.1949
1269,-7.3242,-12.146,-13.4888,-0.2559,0.9551,-0.1343,-90.9823,-154.0801,-356.7472
1270,-7.2021,-14.4043,-13.4888,-0.2251,0.9575,-0.1357,-90.9823,-154.0801,-356.7472
1271,-6.8359,-15.5029,-13.6719,-0.21,0.96,-0.1294,-92.918,-162.0695,-328.5829
1272,-6.897,-18.0054,-13.9771,-0.1904,0.9663,-0.124,-106.4686,-151.7975,-319.1949
1273,-7.4463,-19.104,-14.2212,-0.1914,0.9688,-0.1304,-118.0834,-149.5148,-319.1949
1274,-9.6436,-19.8364,-14.4043,-0.208,0.9673,-0.1494,-120.0191,-152.9388,-334.8416
1275,-10.5591,-19.6533,-14.7705,-0.2187,0.9648,-0.1606,-120.0191,-152.9388,-334.8416
1276,-11.4136,-19.8364,-16.2354,-0.229,0.9629,-0.1831,-108.4044,-148.3735,-328.5829
1277,-10.9253,-20.0195,-17.334,-0.2236,0.9673,-0.1855,-120.0191,-152.9388,-359.8765
1278,-10.2539,-21.2402,-18.6157,-0.1943,0.9771,-0.1553,-108.4044,-150.6561,-334.8416
1279,-10.6201,-22.2168,-18.7988,-0.1865,0.979,-0.1416,-108.4044,-150.6561,-334.8416
1280,-11.9629,-25.3906,-19.3481,-0.1851,0.9668,-0.1479,-116.1476,-141.5255,-316.0655
1281,-12.0239,-27.6489,-21.1792,-0.1929,0.9585,-0.187,-114.2118,-154.0801,-337.971
1282,-11.8408,-27.832,-21.7285,-0.1968,0.9536,-0.1865,-110.3402,-156.3628,-337.971
1283,-12.8784,-27.5269,-22.7661,-0.2124,0.9502,-0.1665,-127.7623,-148.3735,-347.3591
1284,-14.4653,-26.9165,-23.2544,-0.2261,0.9438,-0.1562,-127.7623,-148.3735,-347.3591
1285,-17.7002,-25.1465,-24.4751,-0.2495,0.9258,-0.1611,-123.8907,-146.0908,-366.1352
1286,-18.7378,-24.4751,-25.5127,-0.252,0.9272,-0.1631,-127.7623,-146.0908,-372.394
1287,-19.2871,-23.7427,-27.832,-0.2285,0.9321,-0.146,-120.0191,-148.3735,-347.3591
1288,-19.7754,-24.1089,-28.7476,-0.2144,0.9341,-0.1357,-110.3402,-156.3628,-356.7472
1289,-20.813,-25.6958,-29.7852,-0.2129,0.9443,-0.1313,-110.3402,-156.3628,-356.7472
1290,-21.2402,-27.6489,-30.2734,-0.2334,0.9414,-0.123,-116.1476,-150.6561,-372.394
1291,-21.3623,-28.8696,-30.7007,-0.2427,0.9331,-0.1206,-129.6981,-144.9495,-363.0059
1292,-21.4844,-31.4331,-32.2266,-0.2451,0.9272,-0.1084,-121.9549,-151.7975,-363.0059
1293,-21.4844,-32.7148,-32.959,-0.2344,0.9302,-0.0986,-121.9549,-151.7975,-363.0059
1294,-21.9116,-35.4004,-34.1797,-0.21,0.9355,-0.063,-120.0191,-146.0908,-359.8765
1295,-22.583,-36.9263,-34.3628,-0.209,0.9365,-0.0542,-110.3402,-156.3628,-369.2646
1296,-24.4751,-40.2222,-34.5459,-0.2358,0.9453,-0.0649,-120.0191,-143.8081,-366.1352
1297,-25.6348,-41.5039,-34.3018,-0.2632,0.9448,-0.0869,-139.3771,-150.6561,-359.8765
1298,-27.8931,-42.6025,-33.6914,-0.3437,0.9517,-0.1357,-139.3771,-150.6561,-359.8765
1299,-28.8086,-42.4194,-33.6914,-0.3838,0.9653,-0.1543,-129.6981,-158.6455,-369.2646
1300,-29.3579,-41.2598,-35.7056,-0.4189,0.9922,-0.1479,-141.3129,-149.5148,-388.0407
1301,-28.6255,-40.7104,-39.3677,-0.3657,1.0278,-0.0981,-121.9549,-151.7975,-381.782
1302,-28.7476,-40.8325,-40.8936,-0.3159,1.0474,-0.0718,-137.4413,-156.3628,-369.2646
1303,-30.4565,-41.8091,-42.1753,-0.2202,1.0649,-0.0288,-137.4413,-156.3628,-369.2646
1304,-31.9214,-42.9077,-42.0532,-0.1943,1.0615,-0.0234,-160.6708,-147.2321,-406.817
1305,-34.9731,-45.4712,-40.8936,-0.2021,1.0566,-0.04,-147.1202,-150.6561,-397.4288
1306,-36.6821,-46.3867,-40.6494,-0.2344,1.0542,-0.0625,-141.3129,-142.6668,-375.5233
1307,-39.7949,-46.5088,-41.1987,-0.3086,1.084,-0.1069,-149.056,-147.2321,-406.817
1308,-41.3818,-45.5322,-41.9312,-0.3403,1.1113,-0.1211,-149.056,-147.2321,-406.817
1309,-44.9219,-41.1377,-44.6167,-0.3672,1.168,-0.1216,-156.7992,-147.2321,-400.5582
1310,-46.6919,-38.3301,-46.5088,-0.3628,1.1953,-0.1196,-154.8634,-150.6561,-403.6875
1311,-50.1709,-32.959,-50.415,-0.3096,1.2314,-0.1152,-147.1202,-136.9601,-409.9463
1312,-52.3071,-29.0527,-53.3447,-0.2319,1.2334,-0.0903,-147.1202,-136.9601,-409.9463
1313,-52.7344,-28.2593,-54.6265,-0.1953,1.2188,-0.0806,-162.6066,-141.5255,-384.9114
1314,-53.2837,-28.6255,-57.251,-0.1221,1.1782,-0.0669,-168.414,-149.5148,-413.0756
1315,-53.4058,-29.6021,-58.5327,-0.0972,1.1592,-0.0669,-185.8361,-143.8081,-416.205
1316,-54.1382,-31.7993,-59.9976,-0.0781,1.125,-0.0703,-160.6708,-149.5148,-419.3344
1317,-55.0537,-32.4097,-60.3027,-0.084,1.1143,-0.0767,-160.6708,-149.5148,-419.3344
1318,-56.8848,-32.4707,-60.5469,-0.1138,1.1206,-0.0728,-178.0929,-143.8081,-422.4637
1319,-57.1899,-31.8604,-60.9131,-0.1309,1.126,-0.0659,-191.6435,-142.6668,-400.5582
1320,-57.8003,-29.541,-62.2559,-0.1606,1.1094,-0.0723,-178.0929,-150.6561,-391.1701
1321,-57.6782,-27.4658,-63.4766,-0.1689,1.084,-0.0874,-195.5151,-135.8188,-406.817
1322,-57.1899,-22.0337,-67.627,-0.1812,1.0083,-0.1279,-195.5151,-135.8188,-406.817
1323,-56.0913,-17.5781,-71.8384,-0.2163,0.9326,-0.1416,-207.1298,-149.5148,-400.5582
1324,-54.0161,-17.1509,-72.7539,-0.2432,0.9146,-0.1211,-201.3224,-136.9601,-416.205
1325,-46.3867,-20.6299,-70.6177,-0.3042,0.8945,-0.0674,-214.873,-156.3628,-406.817
1326,-41.5039,-23.2544,-68.2983,-0.3345,0.8843,-0.0444,-214.873,-156.3628,-406.817
1327,-31.189,-27.1606,-62.7441,-0.4146,0.8599,0.0015,-195.5151,-147.2321,-413.0756
1328,-26.1841,-28.5645,-59.2651,-0.4658,0.8599,0.0479,-212.9372,-148.3735,-416.205
1329,-15.1367,-32.4097,-49.8657,-0.5898,0.8569,0.1479,-209.0656,-146.0908,-428.7225
1330,-8.9722,-34.8511,-44.6777,-0.6357,0.8296,0.2007,-226.4878,-156.3628,-413.0756
1331,2.9297,-41.5649,-37.2314,-0.7061,0.7944,0.2905,-226.4878,-156.3628,-413.0756
1332,4.7607,-44.9219,-35.0952,-0.7539,0.7671,0.269,-209.0656,-146.0908,-422.4637
1333,6.2866,-45.7764,-35.1563,-0.7974,0.71,0.2905,-222.6162,-144.9495,-425.5931
1334,8.606,-45.2881,-35.2173,-0.8105,0.6919,0.3472,-216.8088,-139.2428,-428.7225
1335,11.1084,-48.1567,-34.668,-0.8208,0.6602,0.4248,-216.8088,-139.2428,-428.7225
1336,11.1084,-49.8657,-33.9966,-0.813,0.6465,0.4492,-211.0014,-144.9495,-450.628
1337,7.4463,-52.6733,-31.0669,-0.7729,0.6499,0.481,-226.4878,-147.2321,-425.5931
1338,3.9062,-52.7954,-28.1372,-0.751,0.6553,0.4746,-230.3593,-133.5361,-438.1105
1339,-4.3335,-49.0112,-20.5688,-0.6929,0.6738,0.3896,-211.0014,-135.8188,-413.0756
1340,-8.8501,-45.105,-15.1978,-0.6655,0.6948,0.2998,-211.0014,-135.8188,-413.0756
1341,-14.3433,-32.2266,-2.6245,-0.6611,0.7212,0.1592,-209.0656,-150.6561,-453.7574
1342,-13.4888,-24.9634,3.479,-0.6787,0.7319,0.1157,-218.7446,-144.9495,-450.628
1343,-3.8452,-10.6201,14.0381,-0.7388,0.7368,0.043,-249.7173,-135.8188,-431.8518
1344,3.9062,-3.0518,18.0054,-0.7739,0.7373,0.0225,-249.7173,-135.8188,-431.8518
1345,20.6299,13.7329,23.8647,-0.8203,0.7295,0.02,-212.9372,-141.5255,-447.4986
1346,27.71,22.583,26.4893,-0.8228,0.7285,0.0488,-211.0014,-138.1015,-438.1105
1347,37.1704,38.269,32.2266,-0.7886,0.7251,0.1548,-211.0014,-135.8188,-413.0756
1348,39.6118,43.5181,35.5835,-0.7612,0.7202,0.2036,-211.0014,-135.8188,-413.0756
1349,41.5649,50.293,42.8467,-0.6973,0.7183,0.2466,-214.873,-158.6455,-419.3344
1350,42.1143,52.6733,46.9971,-0.6631,0.7168,0.2627,-197.4509,-146.0908,-403.6875
1351,43.8843,55.7861,56.0303,-0.5864,0.7158,0.2798,-205.194,-159.7868,-409.9463
1352,44.3115,56.5796,60.6689,-0.5522,0.7168,0.2861,-205.194,-159.7868,-409.9463
1353,45.7764,55.9692,69.7632,-0.4922,0.7187,0.3003,-199.3866,-151.7975,-425.5931
1354,46.875,54.5654,74.0967,-0.4717,0.7256,0.2954,-191.6435,-151.7975,-394.2995
1355,49.9878,50.1709,81.7261,-0.4351,0.7202,0.2588,-203.2582,-156.3628,-419.3344
1356,51.5747,47.8516,84.8999,-0.4277,0.7227,0.2222,-203.2582,-156.3628,-419.3344
1357,55.603,43.6401,91.5527,-0.4219,0.7495,0.1475,-170.3498,-159.7868,-397.4288
1358,59.021,42.2974,95.3979,-0.4272,0.7769,0.1104,-181.9645,-155.2215,-391.1701
1359,68.6646,41.4429,104.8584,-0.4331,0.8477,0.0918,-183.9003,-147.2321,-375.5233
1360,74.8901,41.3208,109.7412,-0.439,0.8828,0.123,-183.9003,-147.2321,-375.5233
1361,88.2568,40.4663,117.4927,-0.4595,0.9106,0.207,-172.2856,-160.9281,-394.2995
1362,93.8721,39.978,119.751,-0.4795,0.9048,0.2407,-156.7992,-156.3628,-406.817
1363,99.3652,41.0767,121.3379,-0.5469,0.896,0.2827,-135.5055,-159.7868,-378.6526
1364,98.938,42.7246,121.8872,-0.5747,0.877,0.29,-135.5055,-159.7868,-378.6526
1365,97.4121,44.6777,122.1313,-0.5937,0.8545,0.2979,-149.056,-156.3628,-406.817
1366,91.9189,47.9736,121.0327,-0.5952,0.8052,0.2856,-135.5055,-157.5042,-391.1701
1367,88.3789,49.1943,119.6899,-0.5771,0.7915,0.2622,-131.6339,-155.2215,-372.394
1368,82.0313,50.7202,116.8213,-0.519,0.7915,0.2129,-131.6339,-155.2215,-372.394
1369,78.6133,50.5371,115.8447,-0.4761,0.8076,0.188,-131.6339,-159.7868,-366.1352
1370,74.646,48.3398,115.1733,-0.3945,0.9038,0.1528,-116.1476,-164.3522,-341.1004
1371,75.1953,46.1426,115.4785,-0.3599,0.9561,0.1313,-125.8265,-156.3628,-325.4536
1372,79.0405,41.1987,116.272,-0.3276,1.022,0.0615,-114.2118,-160.9281,-344.2297
1373,81.4819,40.2832,115.8447,-0.3237,1.0239,0.0352,-114.2118,-160.9281,-344.2297
1374,82.3364,42.3584,112.915,-0.3101,0.998,0.0039,-96.7896,-148.3735,-328.5829
1375,80.0781,44.4946,111.3281,-0.311,0.9839,-0.0127,-96.7896,-157.5042,-328.5829
1376,70.5566,49.4995,108.4595,-0.332,0.9521,-0.04,-96.7896,-146.0908,-316.0655
1377,65.1245,51.3916,106.4453,-0.3506,0.9453,-0.0479,-96.7896,-146.0908,-316.0655
1378,56.2744,51.8188,100.5859,-0.3755,0.9653,-0.0767,-79.3675,-156.3628,-306.6774
1379,53.772,51.3306,97.5342,-0.3711,0.9844,-0.0928,-69.6885,-164.3522,-309.8068
1380,51.4526,50.0488,91.6748,-0.3286,1.02,-0.1089,-79.3675,-154.0801,-312.9361
1381,50.9644,48.8892,88.9893,-0.2944,1.0371,-0.0957,-79.3675,-154.0801,-312.9361
1382,51.2085,45.105,84.2285,-0.2222,1.0571,-0.0581,-71.6243,-142.6668,-306.6774
1383,50.9644,42.2974,82.3975,-0.1875,1.0557,-0.0366,-58.0738,-155.2215,-291.0306
1384,49.2554,34.5459,78.7964,-0.1304,1.0522,-0.0088,-75.4959,-142.6668,-300.4187
1385,47.9736,30.2734,77.0874,-0.1167,1.0566,-0.0073,-75.4959,-142.6668,-300.4187
1386,45.3491,22.2778,73.6694,-0.1104,1.0586,-0.0244,-60.0096,-154.0801,-306.6774
1387,44.1895,19.043,71.7773,-0.1206,1.0552,-0.0376,-63.8812,-149.5148,-294.1599
1388,42.4194,14.2212,67.0776,-0.1636,1.0562,-0.0581,-44.5232,-151.7975,-275.3838
1389,41.687,12.6953,64.27,-0.1909,1.0439,-0.0645,-44.5232,-151.7975,-275.3838
1390,40.3442,10.9253,57.4341,-0.2251,1.0186,-0.0635,-40.6516,-149.5148,-287.9012
1391,38.8794,10.9253,54.0771,-0.2329,1.0054,-0.0625,-63.8812,-142.6668,-262.8663
1392,35.8887,11.6577,47.7905,-0.2236,0.9868,-0.0586,-44.5232,-142.6668,-250.3489
1393,34.3628,11.6577,44.9829,-0.209,0.9785,-0.0596,-44.5232,-142.6668,-250.3489
1394,32.1045,10.8643,40.1001,-0.1704,0.9736,-0.0562,-46.459,-146.0908,-253.4783
1395,31.311,9.6436,38.0249,-0.1548,0.9673,-0.0591,-48.3948,-151.7975,-262.8663
1396,30.6396,5.6763,33.9966,-0.1235,0.96,-0.064,-52.2664,-142.6668,-244.0902
1397,30.7007,2.8687,32.1045,-0.1123,0.96,-0.0625,-52.2664,-142.6668,-244.0902
1398,31.25,-0.4272,30.4565,-0.0996,0.9614,-0.0552,-54.2022,-139.2428,-259.737
1399,34.3018,-8.4839,26.7944,-0.0693,0.9609,-0.019,-50.3306,-146.0908,-265.9957
1400,36.499,-12.5732,24.4751,-0.0601,0.9478,-0.0146,-44.5232,-142.6668,-275.3838
1401,39.3677,-19.7144,20.2026,-0.0942,0.9155,-0.0176,-44.5232,-142.6668,-275.3838
1402,39.3677,-21.9116,19.7144,-0.1328,0.896,-0.0278,-40.6516,-142.6668,-237.8315
1403,36.438,-22.0337,20.2026,-0.2261,0.8511,-0.0435,-40.6516,-138.1015,-237.8315
1404,34.2407,-20.3247,19.7144,-0.27,0.8276,-0.0508,-25.1653,-147.2321,-256.6076
1405,30.0903,-15.0146,18.1274,-0.3579,0.8105,-0.082,-25.1653,-147.2321,-256.6076
1406,28.1982,-10.6201,17.7612,-0.3872,0.8013,-0.0977,-34.8443,-139.2428,-247.2195
1407,23.8037,1.5259,17.0288,-0.415,0.7783,-0.0996,-32.9085,-149.5148,-269.1251
1408,21.3013,8.0566,16.4185,-0.415,0.7627,-0.0898,-9.679,-142.6668,-237.8315
1409,15.4419,20.6299,14.7095,-0.3945,0.7544,-0.0649,-9.679,-142.6668,-237.8315
1410,12.146,26.4893,13.916,-0.3701,0.7607,-0.0493,-36.7801,-144.9495,-262.8663
1411,6.4697,35.9497,12.6343,-0.3042,0.7861,-0.0239,-23.2295,-146.0908,-234.7021
1412,4.3945,39.0625,11.9629,-0.2656,0.7983,-0.0073,-27.1011,-146.0908,-259.737
1413,2.2583,41.4429,10.7422,-0.1875,0.8413,0.0117,-27.1011,-146.0908,-259.737
1414,1.9531,41.1377,10.6201,-0.1479,0.8594,0.0229,-46.459,-141.5255,-240.9608
1415,2.0752,37.9639,10.8643,-0.0962,0.8745,0.0322,-21.2937,-144.9495,-244.0902
1416,2.0142,35.4614,10.8643,-0.0854,0.8848,0.0303,-23.2295,-146.0908,-234.7021
1417,1.9531,32.4707,10.9863,-0.0928,0.8828,0.0229,-23.2295,-146.0908,-234.7021
1418,2.5635,25.5127,10.1318,-0.0928,0.8862,0.0117,-23.2295,-143.8081,-234.7021
1419,3.54,21.4233,9.7046,-0.0879,0.897,0.0127,-38.7158,-141.5255,-240.9608
1420,4.3335,13.3667,9.2163,-0.0835,0.9258,-0.0288,-40.6516,-144.9495,-244.0902
1421,4.7607,9.9487,8.9111,-0.0933,0.9277,-0.0464,-40.6516,-144.9495,-244.0902
1422,6.4697,3.1738,6.897,-0.1221,0.9023,-0.0625,-32.9085,-147.2321,-244.0902
1423,6.7749,-0.061,5.3101,-0.1318,0.8916,-0.0649,-21.2937,-140.3841,-231.5727
1424,6.4087,-2.9297,3.418,-0.1401,0.8818,-0.0693,-21.2937,-140.3841,-231.5727
1425,4.5166,-7.4463,-1.0376,-0.1406,0.8779,-0.0713,-32.9085,-140.3841,-231.5727
1426,3.479,-9.2163,-3.8452,-0.1401,0.8823,-0.0859,-32.9085,-144.9495,-237.8315
1427,-1.0986,-11.4746,-10.3149,-0.168,0.9248,-0.1367,-29.0369,-140.3841,-250.3489
1428,-2.9297,-11.5967,-13.5498,-0.1768,0.9189,-0.1646,-29.0369,-140.3841,-250.3489
1429,-5.0659,-11.7798,-19.6533,-0.1865,0.9185,-0.1973,-30.9727,-143.8081,-247.2195
1430,-5.9204,-11.1084,-21.9727,-0.1797,0.9497,-0.2056,-9.679,-147.2321,-237.8315
1431,-9.5825,-7.2021,-23.5596,-0.1128,1.0605,-0.2393,-36.7801,-149.5148,-231.5727
1432,-12.8784,-3.6621,-22.3999,-0.063,1.1216,-0.2544,-23.2295,-139.2428,-240.9608
1433,-19.104,4.1504,-16.6016,0.0337,1.2329,-0.3032,-23.2295,-139.2428,-240.9608
1434,-20.9351,7.7515,-12.6953,0.0752,1.2686,-0.355,-30.9727,-143.8081,-234.7021
1435,-21.7285,16.1743,-7.0801,0.1206,1.2944,-0.5376,-23.2295,-148.3735,-234.7021
1436,-20.6909,22.0337,-6.958,0.1104,1.2764,-0.6509,-46.459,-150.6561,-253.4783
1437,-12.3291,36.438,-13.4888,-0.02,1.1992,-0.7529,-46.459,-150.6561,-253.4783
1438,-3.3569,43.7622,-19.6533,-0.0879,1.146,-0.6763,-21.2937,-147.2321,-231.5727
1439,10.7422,52.7954,-33.6304,-0.0996,1.0513,-0.3511,-23.2295,-146.0908,-234.7021
1440,11.0474,54.2603,-40.0391,-0.0479,1.0308,-0.1953,-25.1653,-140.3841,-225.314
1441,3.1128,51.6357,-48.5229,0.1304,1.0503,0.0562,-25.1653,-140.3841,-225.314
1442,-2.6245,47.4243,-50.7202,0.2261,1.0767,0.1353,-40.6516,-151.7975,-219.0553
1443,-15.8081,32.5928,-49.8657,0.3921,1.1538,0.2202,-38.7158,-143.8081,-203.4085
1444,-22.1558,22.583,-46.814,0.437,1.1528,0.145,-19.3579,-152.9388,-215.9259
1445,-28.2593,4.6997,-38.8184,0.4165,1.144,-0.0972,-19.3579,-152.9388,-215.9259
1446,-25.0244,-4.0283,-35.0952,0.3042,1.1685,-0.1665,-38.7158,-150.6561,-215.9259
1447,-8.1177,-22.2778,-30.6396,0.0269,1.0972,-0.2217,-36.7801,-154.0801,-244.0902
1448,0.5493,-29.6021,-31.0059,-0.084,1.042,-0.1987,-38.7158,-152.9388,-222.1846
1449,7.3853,-36.8042,-31.1279,-0.2388,0.9272,-0.1465,-38.7158,-152.9388,-222.1846
1450,5.7983,-35.5835,-30.5786,-0.2939,0.8696,-0.1333,-38.7158,-146.0908,-228.4434
1451,-3.8452,-26.123,-29.6631,-0.3701,0.7681,-0.1294,-52.2664,-158.6455,-250.3489
1452,-9.5825,-20.2026,-29.7852,-0.3936,0.7476,-0.1465,-44.5232,-154.0801,-212.7966
1453,-18.1274,-10.376,-30.5786,-0.4131,0.793,-0.2271,-44.5232,-154.0801,-212.7966
1454,-18.8599,-6.8359,-31.4941,-0.4023,0.8379,-0.2676,-52.2664,-160.9281,-250.3489
1455,-13.7329,-2.3193,-32.2876,-0.334,0.9272,-0.2754,-46.459,-150.6561,-259.737
1456,-9.7046,-0.7935,-31.7993,-0.2842,0.9565,-0.2446,-44.5232,-163.2108,-206.5378
1457,-4.0894,1.2817,-29.6631,-0.2061,0.9595,-0.1514,-50.3306,-152.9388,-234.7021
1458,-3.1128,1.8311,-28.4424,-0.1831,0.9463,-0.1177,-50.3306,-152.9388,-234.7021
1459,-4.0283,0.9155,-26.6724,-0.1479,0.9287,-0.0796,-63.8812,-160.9281,-212.7966
1460,-4.8828,-0.5493,-26.123,-0.1387,0.9341,-0.0781,-67.7527,-163.2108,-256.6076
1461,-6.0425,-3.3569,-25.2686,-0.1323,0.9575,-0.1035,-52.2664,-167.7762,-231.5727
1462,-6.2866,-3.9062,-24.9023,-0.1367,0.9629,-0.1206,-52.2664,-167.7762,-231.5727
1463,-6.4697,-3.1738,-24.353,-0.1475,0.9697,-0.1431,-56.138,-151.7975,-231.5727
1464,-6.4697,-2.1362,-24.4751,-0.1499,0.9727,-0.1514,-56.138,-160.9281,-250.3489
1465,-6.2256,0.2441,-25.3296,-0.1528,0.9688,-0.166,-56.138,-170.0588,-225.314
1466,-6.1035,1.709,-25.7568,-0.1528,0.9614,-0.1719,-56.138,-170.0588,-225.314
1467,-6.7139,4.7607,-26.3672,-0.1489,0.9497,-0.1807,-63.8812,-151.7975,-250.3489
1468,-7.019,6.2256,-26.6113,-0.1489,0.9521,-0.1831,-65.8169,-157.5042,-234.7021
1469,-7.2021,7.5073,-26.7944,-0.1553,0.9634,-0.1865,-75.4959,-160.9281,-231.5727
1470,-7.2632,9.5825,-27.0996,-0.1699,0.9893,-0.1763,-75.4959,-160.9281,-231.5727
1471,-6.897,10.0708,-27.2827,-0.1787,1.0,-0.1685,-77.4317,-162.0695,-259.737
1472,-5.5542,10.3149,-27.771,-0.1831,1.001,-0.166,-61.9454,-159.7868,-240.9608
1473,-5.249,10.5591,-27.9541,-0.1729,1.0039,-0.1431,-67.7527,-156.3628,-237.8315
1474,-6.2866,10.437,-27.3438,-0.1738,0.9717,-0.1455,-67.7527,-156.3628,-237.8315
1475,-6.8359,10.3149,-27.2827,-0.1719,0.9624,-0.1494,-75.4959,-158.6455,-231.5727
1476,-8.3008,9.5825,-26.7944,-0.1885,0.9561,-0.1865,-77.4317,-162.0695,-247.2195
1477,-9.0942,9.5825,-26.6113,-0.2012,0.957,-0.2065,-71.6243,-160.9281,-262.8663
1478,-10.1318,9.5215,-26.4282,-0.2231,0.957,-0.2461,-71.6243,-160.9281,-262.8663
1479,-10.437,9.1553,-26.6113,-0.2295,0.9624,-0.2612,-73.5601,-155.2215,-253.4783
1480,-10.2539,7.2632,-26.3672,-0.2241,0.9863,-0.2778,-85.1749,-162.0695,-253.4783
1481,-9.5825,5.7983,-25.8789,-0.2222,0.9971,-0.2788,-61.9454,-173.4828,-240.9608
1482,-8.4229,2.6245,-24.4751,-0.2119,0.9995,-0.2686,-61.9454,-173.4828,-240.9608
1483,-7.9346,0.5493,-23.8037,-0.2124,0.9927,-0.2529,-75.4959,-167.7762,-231.5727
1484,-7.1411,-4.5166,-22.2168,-0.2271,0.9868,-0.2241,-73.5601,-155.2215,-228.4434
1485,-6.958,-7.0801,-21.4844,-0.2339,0.9868,-0.2139,-63.8812,-160.9281,-269.1251
1486,-6.8359,-11.6577,-20.0806,-0.2432,0.9854,-0.1953,-63.8812,-160.9281,-269.1251
1487,-7.0801,-13.2446,-19.4702,-0.2456,0.979,-0.1943,-79.3675,-172.3415,-256.6076
1488,-7.6904,-15.3809,-17.9443,-0.2651,0.9761,-0.187,-90.9823,-151.7975,-231.5727
1489,-7.9346,-15.9912,-17.0898,-0.2793,0.9771,-0.1851,-75.4959,-163.2108,-250.3489
1490,-7.7515,-16.4795,-15.686,-0.3013,0.9702,-0.1665,-73.5601,-168.9175,-247.2195
1491,-7.4463,-16.4185,-15.4419,-0.3062,0.959,-0.1572,-73.5601,-168.9175,-247.2195
